Folder: ENLIGHTEN/src/enlighten/plugins/Raman/MatchingLibrary/785X (part 4)

File: ethyl acetate.csv
ENLIGHTEN Version,4.1.22
Measurement ID,20250220-200234-502359-WP-01977
Serial Number,WP-01977
Model,WP-785X-F13-R-ILC
Detector,S16011-1106
Label,ethyl acetate
Declared Match,
Declared Score,0
Scan Averaging,3
Boxcar,0
Technique,Raman
Baseline Correction Algo,AirPLS
ROI Pixel Start,47
ROI Pixel End,2047
ROI Start Line,0
ROI Stop Line,63
CCD C4,1.38617e-12
Slit Width,25
Cropped,True
Interpolated,False
Wavenumber Correction,-0.100481
Raman Intensity Corrected,True
Deconvolved,True
Region,
High Gain Mode,False
Laser Power mW,
Electrical Dark Correction,False
Battery %,
Device ID,<DeviceID USB:0x24aa:0x1000:0:1>
FW Version,10.0.0.10
FPGA Version,035-001
BLE Version,
Prefix,enlighten
Suffix,
Preset,
Auto-Raman,True
Session Count,0
Plugin Name,
Integration Time,466
Timestamp,2025-02-20 20:02:34.5024
Note,
Temperature,0
CCD C0,793.274
CCD C1,0.153259
CCD C2,1.40788e-05
CCD C3,-1.132e-08
CCD Offset,0
CCD Gain,1.9
CCD Offset Odd,0
CCD Gain Odd,1.9
Laser Wavelength,785.032
Laser Enable,False
Laser Power %,0
Laser Temperature,0
Pixel Count,2048

Pixel,Wavelength,Wavenumber,Processed,Raw,Dark
0,793.27,132.25,NA,985.67,947.67
9,794.65,154.15,NA,1004.33,964.00
18,796.04,176.01,NA,1017.33,975.33
27,797.42,197.83,NA,1032.00,980.67
36,798.81,219.60,NA,1033.33,968.00
45,800.20,241.33,NA,3033.00,973.33
54,801.59,263.02,48.65,2918.67,983.67
63,802.98,284.66,30.09,2852.33,983.33
72,804.38,306.26,705.36,3657.00,982.33
81,805.77,327.82,405.41,3214.33,966.33
90,807.17,349.32,468.12,3237.33,975.00
99,808.57,370.78,7541.02,14233.33,998.67
108,809.98,392.19,3598.03,8489.33,971.33
117,811.38,413.56,457.06,2970.00,987.33
126,812.79,434.87,544.68,2955.00,962.67
135,814.19,456.14,663.91,3066.33,950.67
144,815.60,477.36,272.54,2406.00,977.00
153,817.01,498.52,30.90,1892.00,982.33
162,818.42,519.64,0.00,1702.33,992.33
171,819.84,540.70,0.00,1629.00,955.67
180,821.25,561.71,13.79,1737.33,954.33
189,822.67,582.67,236.76,2095.00,960.67
198,824.09,603.57,1722.17,4520.67,956.67
207,825.50,624.43,5928.86,14006.67,986.67
216,826.92,645.22,5538.80,13391.67,971.00
225,828.34,665.97,465.21,2490.67,953.67
234,829.77,686.66,82.90,1892.67,1013.00
243,831.19,707.29,0.00,1677.00,973.67
252,832.61,727.87,0.00,1699.33,985.00
261,834.04,748.39,47.41,1860.00,962.67
270,835.47,768.85,560.08,2927.00,956.67
279,836.89,789.26,5074.47,9698.67,975.00
288,838.32,809.61,877.33,3555.67,961.33
297,839.75,829.90,1513.47,5111.00,994.33
306,841.18,850.14,19893.52,31962.00,980.33
315,842.61,870.31,747.70,3682.67,970.33
324,844.04,890.43,60.86,2461.00,966.00
333,845.47,910.49,1098.13,4375.67,964.00
342,846.90,930.49,1403.30,5173.67,966.67
351,848.33,950.43,374.40,3328.67,963.67
360,849.77,970.31,49.52,2585.67,966.67
369,851.20,990.12,1435.66,5189.00,972.00
378,852.63,1009.88,2996.72,7764.33,1000.00
387,854.07,1029.58,1132.28,4567.67,965.33
396,855.50,1049.21,4113.81,8987.33,973.00
405,856.94,1068.79,895.55,4119.00,968.33
414,858.37,1088.30,2110.06,6476.67,949.33
423,859.81,1107.75,5908.14,13283.67,991.00
432,861.25,1127.14,1756.54,6263.00,985.33
441,862.68,1146.46,229.84,2957.00,956.33
450,864.12,1165.73,405.54,3234.33,973.67
459,865.55,1184.93,1.12,2577.00,942.00
468,866.99,1204.06,0.14,2661.67,958.00
477,868.43,1223.14,400.58,3488.00,957.67
486,869.86,1242.15,1566.40,5392.33,962.67
495,871.30,1261.10,1604.98,5835.33,956.33
504,872.73,1279.98,2172.67,6763.67,966.00
513,874.17,1298.80,2368.65,6979.67,964.00
522,875.60,1317.55,1298.40,5535.33,962.00
531,877.04,1336.24,1014.05,5119.00,948.67
540,878.47,1354.87,1936.94,6684.67,958.67
549,879.91,1373.43,2087.75,7027.00,962.67
558,881.34,1391.93,2901.88,8236.00,943.67
567,882.78,1410.36,2624.07,8107.67,947.00
576,884.21,1428.73,4945.94,11784.67,979.67
585,885.64,1447.03,11862.19,22049.67,948.00
594,887.08,1465.26,8663.24,17762.33,981.33
603,888.51,1483.43,4063.65,10360.67,964.67
612,889.94,1501.54,1629.61,6867.33,944.33
621,891.37,1519.58,984.54,5910.00,931.00
630,892.80,1537.56,556.23,5359.67,949.33
639,894.23,1555.46,138.59,4809.00,946.33
648,895.66,1573.31,30.94,4461.33,951.33
657,897.09,1591.09,0.00,4077.33,942.67
666,898.52,1608.80,0.00,3966.00,956.33
675,899.95,1626.44,71.18,3949.67,951.33
684,901.37,1644.02,0.00,3770.67,958.00
693,902.80,1661.54,40.18,3739.33,975.00
702,904.22,1678.99,91.52,3661.67,939.67
711,905.64,1696.37,505.24,4112.33,969.33
720,907.07,1713.68,940.75,4615.67,943.00
729,908.49,1730.93,7873.33,13778.33,954.33
738,909.91,1748.12,5505.20,10667.33,958.00
747,911.33,1765.23,598.80,3784.33,948.67
756,912.75,1782.29,110.42,2946.33,938.33
765,914.16,1799.27,0.14,2675.67,945.00
774,915.58,1816.19,0.00,2519.33,936.67
783,916.99,1833.04,25.53,2499.00,951.00
792,918.41,1849.83,5.58,2405.33,965.33
801,919.82,1866.55,38.27,2363.00,959.00
810,921.23,1883.20,83.83,2337.00,957.67
819,922.64,1899.79,84.18,2231.33,938.00
828,924.05,1916.31,45.82,2125.33,952.00
837,925.46,1932.77,56.66,2064.67,952.00
846,926.86,1949.16,45.80,1984.00,955.00
855,928.27,1965.48,65.28,1909.33,933.67
864,929.67,1981.74,25.28,1823.33,956.67
873,931.07,1997.93,5.40,1734.67,957.67
882,932.47,2014.06,0.00,1648.00,946.67
891,933.87,2030.12,5.37,1597.67,950.00
900,935.27,2046.11,22.44,1585.67,978.00
909,936.66,2062.04,23.27,1529.67,970.00
918,938.06,2077.91,90.05,1530.67,943.67
927,939.45,2093.70,143.67,1537.00,960.00
936,940.84,2109.44,25.42,1361.00,941.00
945,942.23,2125.10,0.00,1288.67,955.67
954,943.62,2140.70,0.00,1263.67,964.00
963,945.00,2156.24,8.29,1241.33,943.00
972,946.39,2171.71,12.68,1231.67,947.00
981,947.77,2187.12,3.55,1209.00,936.67
990,949.15,2202.46,3.68,1223.33,952.00
999,950.53,2217.73,8.49,1216.33,944.33
1008,951.90,2232.94,58.21,1243.67,936.33
1017,953.28,2248.09,58.60,1271.00,969.67
1026,954.65,2263.17,58.03,1241.00,946.00
1035,956.02,2278.19,95.36,1284.00,959.00
1044,957.39,2293.14,148.94,1303.67,947.67
1053,958.75,2308.03,72.67,1237.33,943.00
1062,960.12,2322.85,41.59,1206.00,941.67
1071,961.48,2337.61,0.00,1179.67,953.00
1080,962.84,2352.31,0.24,1177.33,952.00
1089,964.20,2366.94,14.35,1193.00,955.33
1098,965.56,2381.51,11.90,1195.33,952.67
1107,966.91,2396.01,15.32,1203.67,956.67
1116,968.26,2410.45,36.46,1219.33,958.33
1125,969.61,2424.83,83.30,1231.33,941.00
1134,970.96,2439.14,49.95,1224.00,947.33
1143,972.30,2453.39,84.80,1244.33,943.00
1152,973.65,2467.58,127.89,1289.67,956.00
1161,974.99,2481.70,110.70,1277.67,957.33
1170,976.33,2495.76,91.90,1263.33,959.33
1179,977.66,2509.76,43.90,1230.67,954.67
1188,979.00,2523.70,28.82,1235.33,966.00
1197,980.33,2537.57,112.12,1255.00,943.67
1206,981.66,2551.38,32.21,1246.33,976.67
1215,982.98,2565.13,8.49,1206.33,949.33
1224,984.31,2578.82,8.77,1214.33,952.67
1233,985.63,2592.44,144.67,1276.33,947.00
1242,986.95,2606.01,265.31,1369.00,973.00
1251,988.27,2619.51,317.52,1388.67,970.33
1260,989.58,2632.95,181.92,1320.67,967.33
1269,990.89,2646.33,9.23,1263.33,988.67
1278,992.20,2659.65,0.00,1237.33,967.00
1287,993.51,2672.91,0.00,1244.33,970.33
1296,994.81,2686.10,10.78,1309.33,967.00
1305,996.12,2699.24,469.66,1589.00,971.33
1314,997.41,2712.32,2832.50,2465.00,977.33
1323,998.71,2725.33,1886.85,2217.00,959.67
1332,1000.01,2738.29,1854.70,2187.67,987.33
1341,1001.30,2751.18,1154.46,1988.00,1008.33
1350,1002.59,2764.02,888.21,1898.33,983.67
1359,1003.87,2776.79,1624.33,2127.67,975.33
1368,1005.15,2789.51,891.27,1912.33,970.67
1377,1006.43,2802.17,7.82,1645.67,974.67
1386,1007.71,2814.77,0.00,1631.33,956.00
1395,1008.99,2827.30,0.00,1770.00,960.00
1404,1010.26,2839.78,0.00,2149.33,980.67
1413,1011.53,2852.21,2159.16,2896.00,969.33
1422,1012.80,2864.57,4208.15,3703.00,993.67
1431,1014.06,2876.87,16555.94,6478.33,957.33
1440,1015.32,2889.12,13020.17,6053.00,987.33
1449,1016.58,2901.31,22910.19,8095.33,978.00
1458,1017.83,2913.44,28183.47,9460.67,962.67
1467,1019.09,2925.51,47002.67,14043.00,990.33
1476,1020.33,2937.53,100238.94,24273.67,997.00
1485,1021.58,2949.49,65274.31,17301.67,991.67
1494,1022.82,2961.39,39111.89,10940.33,974.67
1503,1024.07,2973.23,39637.87,10558.67,1004.33
1512,1025.30,2985.02,35494.76,9281.00,952.33
1521,1026.54,2996.75,20710.56,6426.33,981.00
1530,1027.77,3008.43,12049.90,4644.67,976.33
1539,1029.00,3020.05,7321.18,3666.00,956.33
1548,1030.22,3031.61,3581.08,2975.67,969.67
1557,1031.45,3043.12,353.43,2423.67,977.33
1566,1032.67,3054.57,0.00,2058.00,968.67
1575,1033.88,3065.97,0.00,1830.00,934.33
1584,1035.10,3077.31,0.00,1699.33,977.00
1593,1036.31,3088.60,0.00,1598.33,980.00
1602,1037.52,3099.83,10.24,1514.33,970.00
1611,1038.72,3111.00,27.77,1458.33,981.00
1620,1039.92,3122.13,0.00,1391.00,983.00
1629,1041.12,3133.20,27.58,1357.33,990.67
1638,1042.32,3144.21,0.00,1295.33,972.00
1647,1043.51,3155.17,43.52,1275.33,976.00
1656,1044.70,3166.08,133.73,1280.67,996.67
1665,1045.88,3176.93,35.12,1251.00,988.67
1674,1047.07,3187.73,136.57,1226.67,968.67
1683,1048.24,3198.48,237.17,1244.67,992.33
1692,1049.42,3209.17,311.51,1236.33,988.33
1701,1050.59,3219.81,259.44,1201.67,969.00
1710,1051.76,3230.40,573.45,1232.33,990.00
1719,1052.93,3240.94,422.50,1184.67,962.33
1728,1054.10,3251.42,446.96,1202.00,989.67
1737,1055.26,3261.86,838.45,1217.67,990.00
1746,1056.41,3272.24,906.41,1222.00,999.67
1755,1057.57,3282.57,795.35,1204.00,1000.00
1764,1058.72,3292.85,783.28,1180.33,986.33
1773,1059.87,3303.07,753.59,1166.33,982.33
1782,1061.01,3313.25,638.29,1150.00,981.67
1791,1062.15,3323.38,635.83,1126.67,966.67
1800,1063.29,3333.45,558.31,1116.33,968.33
1809,1064.42,3343.48,733.22,1124.00,978.00
1818,1065.55,3353.45,775.40,1114.67,973.00
1827,1066.68,3363.38,551.55,1106.67,982.33
1836,1067.81,3373.25,542.45,1077.67,958.00
1845,1068.93,3383.08,404.71,1072.67,965.33
1854,1070.05,3392.85,442.82,1113.67,1010.67
1863,1071.16,3402.58,552.29,1071.67,969.67
1872,1072.27,3412.26,674.12,1074.00,973.33
1881,1073.38,3421.89,277.20,1035.33,953.00
1890,1074.49,3431.47,598.04,1053.67,964.67
1899,1075.59,3441.00,625.72,1052.00,967.67
1908,1076.69,3450.49,749.65,1064.00,982.33
1917,1077.78,3459.93,668.35,1036.33,958.33
1926,1078.87,3469.32,375.46,1050.33,984.33
1935,1079.96,3478.66,853.55,1032.33,959.33
1944,1081.05,3487.95,308.07,1040.67,983.00
1953,1082.13,3497.20,75.58,1030.67,982.00
1962,1083.21,3506.40,166.30,1015.00,967.33
1971,1084.28,3515.56,160.30,1043.67,997.33
1980,1085.36,3524.67,338.92,1018.33,971.67
1989,1086.42,3533.73,717.17,1012.00,959.33
1998,1087.49,3542.74,0.00,1007.00,973.33
2007,1088.55,3551.71,647.45,1000.33,957.00
2016,1089.61,3560.64,653.87,1001.33,956.33
2025,1090.67,3569.52,681.02,1008.67,968.33
2034,1091.72,3578.35,0.00,966.67,939.00
2043,1092.77,3587.14,0.00,966.67,939.67
2047,1093.23,3591.03,46.23,961.33,930.33

File: isopropanol.csv
ENLIGHTEN Version,4.1.22
Measurement ID,20250220-195943-150331-WP-01977
Serial Number,WP-01977
Model,WP-785X-F13-R-ILC
Detector,S16011-1106
Label,isopropanol
Declared Match,
Declared Score,0
Scan Averaging,5
Boxcar,0
Technique,Raman
Baseline Correction Algo,AirPLS
ROI Pixel Start,47
ROI Pixel End,2047
ROI Start Line,0
ROI Stop Line,63
CCD C4,1.38617e-12
Slit Width,25
Cropped,True
Interpolated,False
Wavenumber Correction,-0.100481
Raman Intensity Corrected,True
Deconvolved,True
Region,
High Gain Mode,False
Laser Power mW,
Electrical Dark Correction,False
Battery %,
Device ID,<DeviceID USB:0x24aa:0x1000:0:1>
FW Version,10.0.0.10
FPGA Version,035-001
BLE Version,
Prefix,enlighten
Suffix,
Preset,
Auto-Raman,True
Session Count,0
Plugin Name,
Integration Time,232
Timestamp,2025-02-20 19:59:43.1503
Note,
Temperature,0
CCD C0,793.274
CCD C1,0.153259
CCD C2,1.40788e-05
CCD C3,-1.132e-08
CCD Offset,0
CCD Gain,1.9
CCD Offset Odd,0
CCD Gain Odd,1.9
Laser Wavelength,785.032
Laser Enable,False
Laser Power %,0
Laser Temperature,0
Pixel Count,2048

Pixel,Wavelength,Wavenumber,Processed,Raw,Dark
0,793.27,132.25,NA,906.60,896.80
9,794.65,154.15,NA,913.40,901.40
18,796.04,176.01,NA,918.40,907.40
27,797.42,197.83,NA,924.00,912.40
36,798.81,219.60,NA,923.20,907.00
45,800.20,241.33,NA,1555.60,906.80
54,801.59,263.02,105.62,1661.20,919.80
63,802.98,284.66,37.03,1554.00,913.80
72,804.38,306.26,0.00,1479.20,916.80
81,805.77,327.82,9.27,1484.80,904.20
90,807.17,349.32,91.33,1604.20,909.60
99,808.57,370.78,1139.76,2928.40,913.40
108,809.98,392.19,388.72,2023.20,903.40
117,811.38,413.56,702.12,2509.60,912.00
126,812.79,434.87,1520.28,3655.40,908.40
135,814.19,456.14,805.79,2624.80,896.60
144,815.60,477.36,822.07,2763.00,911.60
153,817.01,498.52,1254.78,3342.60,909.80
162,818.42,519.64,181.80,1661.80,907.60
171,819.84,540.70,79.71,1462.60,895.00
180,821.25,561.71,0.00,1319.60,899.20
189,822.67,582.67,0.00,1310.80,905.60
198,824.09,603.57,0.37,1306.40,900.40
207,825.50,624.43,0.12,1317.00,911.20
216,826.92,645.22,7.83,1317.00,900.00
225,828.34,665.97,0.00,1306.60,900.00
234,829.77,686.66,6.88,1349.40,914.00
243,831.19,707.29,0.83,1361.40,913.00
252,832.61,727.87,0.00,1381.00,914.60
261,834.04,748.39,10.32,1478.20,904.60
270,835.47,768.85,125.94,1730.80,900.60
279,836.89,789.26,798.47,2869.40,903.80
288,838.32,809.61,4804.21,12742.60,908.20
297,839.75,829.90,3481.40,10820.40,919.00
306,841.18,850.14,302.96,2218.00,909.00
315,842.61,870.31,142.73,1940.40,905.00
324,844.04,890.43,30.49,1800.80,902.20
333,845.47,910.49,387.95,2420.00,905.40
342,846.90,930.49,1952.88,5021.00,910.80
351,848.33,950.43,4570.28,9045.60,905.40
360,849.77,970.31,659.51,2907.80,902.80
369,851.20,990.12,135.46,1819.60,901.40
378,852.63,1009.88,2.74,1577.20,911.20
387,854.07,1029.58,0.00,1512.00,899.80
396,855.50,1049.21,5.06,1591.20,905.20
405,856.94,1068.79,177.44,1931.20,908.20
414,858.37,1088.30,567.72,2676.20,895.40
423,859.81,1107.75,2407.66,5680.40,914.00
432,861.25,1127.14,3420.23,7505.20,911.80
441,862.68,1146.46,1671.80,4834.00,902.20
450,864.12,1165.73,2047.88,5047.40,900.20
459,865.55,1184.93,298.41,2439.40,896.00
468,866.99,1204.06,33.69,2029.20,908.00
477,868.43,1223.14,0.00,2005.00,897.40
486,869.86,1242.15,0.00,2049.40,901.60
495,871.30,1261.10,55.10,2241.80,904.40
504,872.73,1279.98,339.90,2737.40,900.40
513,874.17,1298.80,979.04,3776.80,900.00
522,875.60,1317.55,1360.50,4415.60,906.80
531,877.04,1336.24,2181.73,5724.80,895.20
540,878.47,1354.87,1452.02,4715.60,901.60
549,879.91,1373.43,1239.06,4334.40,902.20
558,881.34,1391.93,1564.98,4850.20,891.20
567,882.78,1410.36,2539.47,6271.80,897.00
576,884.21,1428.73,2759.20,6727.80,910.40
585,885.64,1447.03,7021.07,13097.80,894.20
594,887.08,1465.26,4993.56,10246.40,910.60
603,888.51,1483.43,1459.45,4769.60,903.60
612,889.94,1501.54,594.86,3366.80,892.20
621,891.37,1519.58,280.16,2897.60,885.80
630,892.80,1537.56,115.87,2672.00,894.20
639,894.23,1555.46,1.70,2443.00,896.20
648,895.66,1573.31,0.00,2325.00,896.80
657,897.09,1591.09,0.00,2240.80,894.20
666,898.52,1608.80,26.70,2244.40,895.60
675,899.95,1626.44,79.99,2271.40,900.00
684,901.37,1644.02,93.86,2250.40,901.80
693,902.80,1661.54,159.35,2293.60,911.20
702,904.22,1678.99,168.49,2238.20,893.60
711,905.64,1696.37,210.17,2258.20,899.20
720,907.07,1713.68,382.59,2397.00,893.60
729,908.49,1730.93,131.68,2049.20,899.40
738,909.91,1748.12,78.15,1917.60,895.80
747,911.33,1765.23,20.82,1798.40,896.20
756,912.75,1782.29,4.51,1730.60,888.00
765,914.16,1799.27,15.38,1700.00,894.80
774,915.58,1816.19,20.89,1663.80,888.00
783,916.99,1833.04,45.43,1668.60,900.60
792,918.41,1849.83,59.11,1645.00,900.00
801,919.82,1866.55,56.04,1606.00,898.20
810,921.23,1883.20,58.90,1581.80,902.80
819,922.64,1899.79,71.90,1545.20,890.40
828,924.05,1916.31,66.39,1509.40,895.20
837,925.46,1932.77,83.03,1493.60,898.60
846,926.86,1949.16,70.87,1445.00,898.20
855,928.27,1965.48,59.62,1388.80,889.20
864,929.67,1981.74,29.88,1333.20,898.80
873,931.07,1997.93,10.15,1280.60,900.40
882,932.47,2014.06,5.77,1239.00,895.40
891,933.87,2030.12,10.15,1216.00,895.40
900,935.27,2046.11,13.89,1207.40,909.60
909,936.66,2062.04,19.99,1186.60,907.40
918,938.06,2077.91,37.30,1163.60,893.40
927,939.45,2093.70,9.55,1117.40,896.40
936,940.84,2109.44,23.08,1107.40,897.40
945,942.23,2125.10,4.40,1072.60,902.80
954,943.62,2140.70,0.00,1041.40,902.00
963,945.00,2156.24,13.02,1028.60,888.80
972,946.39,2171.71,1.19,1025.60,898.60
981,947.77,2187.12,6.83,1018.60,887.20
990,949.15,2202.46,8.41,1029.20,897.20
999,950.53,2217.73,21.69,1030.60,891.00
1008,951.90,2232.94,17.08,1031.00,892.60
1017,953.28,2248.09,53.79,1068.40,900.60
1026,954.65,2263.17,85.38,1087.40,894.80
1035,956.02,2278.19,91.05,1094.00,895.00
1044,957.39,2293.14,97.14,1101.00,898.20
1053,958.75,2308.03,59.70,1066.00,893.00
1062,960.12,2322.85,43.02,1053.00,896.40
1071,961.48,2337.61,35.33,1045.80,895.80
1080,962.84,2352.31,29.69,1039.80,895.20
1089,964.20,2366.94,88.80,1084.60,898.00
1098,965.56,2381.51,134.78,1116.80,901.40
1107,966.91,2396.01,77.59,1075.00,899.20
1116,968.26,2410.45,54.28,1052.40,895.00
1125,969.61,2424.83,29.60,1033.00,893.20
1134,970.96,2439.14,0.03,1016.00,897.00
1143,972.30,2453.39,5.11,1018.40,894.20
1152,973.65,2467.58,15.92,1034.40,896.80
1161,974.99,2481.70,37.82,1052.80,894.40
1170,976.33,2495.76,42.77,1070.80,900.60
1179,977.66,2509.76,62.59,1084.40,898.60
1188,979.00,2523.70,36.18,1082.80,902.20
1197,980.33,2537.57,24.99,1068.40,891.00
1206,981.66,2551.38,0.00,1075.20,909.20
1215,982.98,2565.13,0.00,1082.40,896.00
1224,984.31,2578.82,18.65,1129.60,895.20
1233,985.63,2592.44,96.31,1200.40,896.60
1242,986.95,2606.01,191.60,1284.40,906.40
1251,988.27,2619.51,254.61,1343.60,910.20
1260,989.58,2632.95,305.57,1389.20,908.60
1269,990.89,2646.33,370.23,1445.80,914.20
1278,992.20,2659.65,544.15,1516.00,905.00
1287,993.51,2672.91,117.61,1364.00,907.40
1296,994.81,2686.10,0.00,1320.60,906.20
1305,996.12,2699.24,423.31,1531.60,907.80
1314,997.41,2712.32,1563.48,2036.20,908.60
1323,998.71,2725.33,2235.95,2255.20,905.40
1332,1000.01,2738.29,716.28,1735.00,914.80
1341,1001.30,2751.18,1027.61,1813.20,925.60
1350,1002.59,2764.02,335.49,1588.80,912.60
1359,1003.87,2776.79,0.00,1457.60,908.80
1368,1005.15,2789.51,0.00,1491.20,906.80
1377,1006.43,2802.17,0.00,1584.60,908.40
1386,1007.71,2814.77,0.68,1736.80,896.00
1395,1008.99,2827.30,188.40,1936.60,901.40
1404,1010.26,2839.78,1730.11,2385.60,909.80
1413,1011.53,2852.21,5215.35,3386.40,905.80
1422,1012.80,2864.57,13403.10,5674.60,925.00
1431,1014.06,2876.87,28641.52,9331.00,902.00
1440,1015.32,2889.12,26620.21,8782.00,913.60
1449,1016.58,2901.31,22040.77,7494.20,911.20
1458,1017.83,2913.44,32214.98,9494.60,905.00
1467,1019.09,2925.51,33847.52,9684.80,912.00
1476,1020.33,2937.53,31914.10,8741.00,921.40
1485,1021.58,2949.49,17591.82,5701.60,909.60
1494,1022.82,2961.39,15359.50,5061.60,905.80
1503,1024.07,2973.23,28651.02,7136.20,919.20
1512,1025.30,2985.02,16870.32,4947.20,901.80
1521,1026.54,2996.75,6240.37,2788.20,911.60
1530,1027.77,3008.43,2562.63,2004.20,909.60
1539,1029.00,3020.05,572.42,1609.80,901.00
1548,1030.22,3031.61,1.74,1397.80,905.80
1557,1031.45,3043.12,0.00,1262.60,911.80
1566,1032.67,3054.57,0.00,1178.80,901.40
1575,1033.88,3065.97,0.00,1116.60,889.40
1584,1035.10,3077.31,21.53,1102.20,909.40
1593,1036.31,3088.60,0.00,1074.00,907.60
1602,1037.52,3099.83,6.57,1059.60,906.20
1611,1038.72,3111.00,26.47,1058.20,912.60
1620,1039.92,3122.13,0.00,1046.40,911.80
1629,1041.12,3133.20,49.25,1056.60,916.60
1638,1042.32,3144.21,212.31,1057.60,906.80
1647,1043.51,3155.17,355.09,1071.80,909.80
1656,1044.70,3166.08,526.58,1093.00,920.00
1665,1045.88,3176.93,821.12,1110.80,914.40
1674,1047.07,3187.73,998.38,1102.40,900.00
1683,1048.24,3198.48,1188.78,1134.40,921.20
1692,1049.42,3209.17,1381.68,1136.80,913.20
1701,1050.59,3219.81,1547.67,1137.00,907.80
1710,1051.76,3230.40,1813.95,1156.40,917.60
1719,1052.93,3240.94,2020.00,1145.60,901.20
1728,1054.10,3251.42,1914.20,1142.80,916.40
1737,1055.26,3261.86,2252.50,1153.20,912.40
1746,1056.41,3272.24,2208.61,1149.80,921.60
1755,1057.57,3282.57,2202.66,1143.40,924.80
1764,1058.72,3292.85,2205.37,1126.00,916.80
1773,1059.87,3303.07,2328.39,1117.20,912.00
1782,1061.01,3313.25,2468.22,1114.60,912.80
1791,1062.15,3323.38,2324.10,1100.00,909.40
1800,1063.29,3333.45,2342.75,1086.80,905.80
1809,1064.42,3343.48,2432.06,1091.00,912.20
1818,1065.55,3353.45,2475.65,1076.40,906.20
1827,1066.68,3363.38,2352.24,1073.60,913.00
1836,1067.81,3373.25,2397.75,1050.20,897.00
1845,1068.93,3383.08,2455.82,1047.00,899.00
1854,1070.05,3392.85,2139.17,1059.00,927.20
1863,1071.16,3402.58,2170.72,1034.20,909.20
1872,1072.27,3412.26,2066.02,1027.20,909.20
1881,1073.38,3421.89,1970.93,1004.40,895.60
1890,1074.49,3431.47,1970.87,1006.00,902.60
1899,1075.59,3441.00,2049.09,1002.80,903.40
1908,1076.69,3450.49,1546.42,1001.80,918.00
1917,1077.78,3459.93,1806.45,983.60,898.80
1926,1078.87,3469.32,1733.49,993.40,913.80
1935,1079.96,3478.66,1406.41,972.00,903.80
1944,1081.05,3487.95,1295.54,977.80,914.20
1953,1082.13,3497.20,1130.92,969.20,913.80
1962,1083.21,3506.40,747.50,950.40,906.20
1971,1084.28,3515.56,652.78,961.40,919.80
1980,1085.36,3524.67,854.10,952.00,910.00
1989,1086.42,3533.73,692.90,938.60,900.80
1998,1087.49,3542.74,743.43,945.00,907.00
2007,1088.55,3551.71,891.42,934.00,897.20
2016,1089.61,3560.64,228.83,926.40,901.20
2025,1090.67,3569.52,253.92,928.40,903.80
2034,1091.72,3578.35,123.33,908.40,888.80
2043,1092.77,3587.14,266.28,910.20,890.40
2047,1093.23,3591.03,45.21,903.40,884.80