Folder: ENLIGHTEN/plugins/Raman/MatchingLibrary/785X (part 3)

File: alanine.csv
ENLIGHTEN Version,4.1.22
Measurement ID,20250220-202659-561446-WP-01977
Serial Number,WP-01977
Model,WP-785X-F13-R-ILC
Detector,S16011-1106
Label,alanine
Declared Match,
Declared Score,0
Scan Averaging,1
Boxcar,0
Technique,Raman
Baseline Correction Algo,AirPLS
ROI Pixel Start,47
ROI Pixel End,2047
ROI Start Line,0
ROI Stop Line,63
CCD C4,1.38617e-12
Slit Width,25
Cropped,True
Interpolated,False
Wavenumber Correction,-0.100481
Raman Intensity Corrected,True
Deconvolved,True
Region,
High Gain Mode,False
Laser Power mW,
Electrical Dark Correction,False
Battery %,
Device ID,<DeviceID USB:0x24aa:0x1000:0:1>
FW Version,10.0.0.10
FPGA Version,035-001
BLE Version,
Prefix,enlighten
Suffix,
Preset,
Auto-Raman,True
Session Count,0
Plugin Name,
Integration Time,1030
Timestamp,2025-02-20 20:26:59.5614
Note,
Temperature,0
CCD C0,793.274
CCD C1,0.153259
CCD C2,1.40788e-05
CCD C3,-1.132e-08
CCD Offset,0
CCD Gain,1.9
CCD Offset Odd,0
CCD Gain Odd,1.9
Laser Wavelength,785.032
Laser Enable,False
Laser Power %,0
Laser Temperature,0
Pixel Count,2048

Pixel,Wavelength,Wavenumber,Processed,Raw,Dark
0,793.27,132.25,NA,1154.00,1070.00
9,794.65,154.15,NA,1197.00,1108.00
18,796.04,176.01,NA,1233.00,1146.00
27,797.42,197.83,NA,1277.00,1152.00
36,798.81,219.60,NA,1302.00,1125.00
45,800.20,241.33,NA,8444.00,1133.00
54,801.59,263.02,0.00,7648.00,1184.00
63,802.98,284.66,1316.28,9334.00,1169.00
72,804.38,306.26,3327.86,11711.00,1154.00
81,805.77,327.82,1657.01,9110.00,1118.00
90,807.17,349.32,1390.29,8852.00,1144.00
99,808.57,370.78,4000.76,11895.00,1156.00
108,809.98,392.19,648.24,7177.00,1120.00
117,811.38,413.56,1225.47,7542.00,1137.00
126,812.79,434.87,0.00,5528.00,1135.00
135,814.19,456.14,20.82,5467.00,1084.00
144,815.60,477.36,606.04,6407.00,1140.00
153,817.01,498.52,1992.34,8212.00,1150.00
162,818.42,519.64,0.00,4979.00,1127.00
171,819.84,540.70,1089.29,7168.00,1085.00
180,821.25,561.71,3867.31,11390.00,1085.00
189,822.67,582.67,1243.73,7037.00,1116.00
198,824.09,603.57,2061.51,8250.00,1085.00
207,825.50,624.43,1289.29,7111.00,1144.00
216,826.92,645.22,1027.77,6401.00,1127.00
225,828.34,665.97,724.05,5822.00,1076.00
234,829.77,686.66,193.42,4979.00,1228.00
243,831.19,707.29,4.09,4533.00,1158.00
252,832.61,727.87,0.00,4385.00,1152.00
261,834.04,748.39,231.42,4960.00,1123.00
270,835.47,768.85,0.00,4744.00,1099.00
279,836.89,789.26,327.06,5636.00,1116.00
288,838.32,809.61,634.59,6314.00,1114.00
297,839.75,829.90,428.75,6346.00,1167.00
306,841.18,850.14,3480.52,11291.00,1121.00
315,842.61,870.31,4682.18,13623.00,1112.00
324,844.04,890.43,697.59,7656.00,1106.00
333,845.47,910.49,1199.18,8761.00,1118.00
342,846.90,930.49,4006.54,13342.00,1131.00
351,848.33,950.43,2.16,6906.00,1116.00
360,849.77,970.31,3753.32,14648.00,1116.00
369,851.20,990.12,15401.94,33401.00,1133.00
378,852.63,1009.88,2788.52,11711.00,1171.00
387,854.07,1029.58,4903.49,15107.00,1095.00
396,855.50,1049.21,926.06,9150.00,1121.00
405,856.94,1068.79,8484.63,21171.00,1131.00
414,858.37,1088.30,7021.57,20155.00,1080.00
423,859.81,1107.75,3583.59,13976.00,1159.00
432,861.25,1127.14,2160.24,10773.00,1148.00
441,862.68,1146.46,59.91,7557.00,1095.00
450,864.12,1165.73,313.20,7912.00,1123.00
459,865.55,1184.93,3673.74,13308.00,1057.00
468,866.99,1204.06,3078.13,12620.00,1114.00
477,868.43,1223.14,0.00,7392.00,1101.00
486,869.86,1242.15,76.29,7929.00,1093.00
495,871.30,1261.10,2813.00,12254.00,1087.00
504,872.73,1279.98,2739.60,12685.00,1116.00
513,874.17,1298.80,5394.01,17695.00,1102.00
522,875.60,1317.55,7056.20,21203.00,1112.00
531,877.04,1336.24,5035.18,17330.00,1068.00
540,878.47,1354.87,2233.60,12700.00,1085.00
549,879.91,1373.43,2143.26,12926.00,1116.00
558,881.34,1391.93,1704.35,12400.00,1051.00
567,882.78,1410.36,3114.69,14938.00,1076.00
576,884.21,1428.73,6963.09,21628.00,1131.00
585,885.64,1447.03,9408.72,24772.00,1078.00
594,887.08,1465.26,2092.31,14327.00,1129.00
603,888.51,1483.43,2060.93,14209.00,1095.00
612,889.94,1501.54,846.60,12013.00,1053.00
621,891.37,1519.58,158.93,11134.00,1032.00
630,892.80,1537.56,171.61,10914.00,1072.00
639,894.23,1555.46,523.68,11090.00,1065.00
648,895.66,1573.31,901.42,11267.00,1082.00
657,897.09,1591.09,571.43,10511.00,1063.00
666,898.52,1608.80,835.05,10526.00,1076.00
675,899.95,1626.44,785.05,10097.00,1061.00
684,901.37,1644.02,681.46,9626.00,1095.00
693,902.80,1661.54,449.61,9051.00,1131.00
702,904.22,1678.99,885.68,9290.00,1057.00
711,905.64,1696.37,1460.58,9807.00,1106.00
720,907.07,1713.68,1665.12,9617.00,1076.00
729,908.49,1730.93,509.76,7846.00,1078.00
738,909.91,1748.12,111.23,6986.00,1084.00
747,911.33,1765.23,77.64,6631.00,1076.00
756,912.75,1782.29,12.51,6270.00,1055.00
765,914.16,1799.27,34.09,6088.00,1070.00
774,915.58,1816.19,21.32,5852.00,1049.00
783,916.99,1833.04,130.68,5790.00,1089.00
792,918.41,1849.83,222.43,5687.00,1093.00
801,919.82,1866.55,300.35,5539.00,1066.00
810,921.23,1883.20,308.90,5380.00,1102.00
819,922.64,1899.79,341.33,5129.00,1038.00
828,924.05,1916.31,276.51,4928.00,1080.00
837,925.46,1932.77,237.16,4691.00,1085.00
846,926.86,1949.16,208.21,4467.00,1089.00
855,928.27,1965.48,219.19,4252.00,1047.00
864,929.67,1981.74,137.21,4020.00,1085.00
873,931.07,1997.93,121.95,3813.00,1087.00
882,932.47,2014.06,94.42,3588.00,1074.00
891,933.87,2030.12,48.42,3402.00,1089.00
900,935.27,2046.11,0.00,3217.00,1146.00
909,936.66,2062.04,28.14,3098.00,1125.00
918,938.06,2077.91,0.00,2860.00,1082.00
927,939.45,2093.70,0.00,2726.00,1091.00
936,940.84,2109.44,23.76,2665.00,1066.00
945,942.23,2125.10,10.71,2616.00,1102.00
954,943.62,2140.70,0.32,2530.00,1099.00
963,945.00,2156.24,4.47,2441.00,1061.00
972,946.39,2171.71,30.81,2445.00,1084.00
981,947.77,2187.12,49.53,2376.00,1036.00
990,949.15,2202.46,68.52,2416.00,1085.00
999,950.53,2217.73,40.58,2361.00,1072.00
1008,951.90,2232.94,90.63,2359.00,1061.00
1017,953.28,2248.09,99.15,2392.00,1121.00
1026,954.65,2263.17,80.67,2285.00,1063.00
1035,956.02,2278.19,151.94,2319.00,1076.00
1044,957.39,2293.14,104.46,2285.00,1097.00
1053,958.75,2308.03,114.17,2228.00,1066.00
1062,960.12,2322.85,86.84,2190.00,1072.00
1071,961.48,2337.61,44.98,2135.00,1070.00
1080,962.84,2352.31,63.58,2141.00,1095.00
1089,964.20,2366.94,0.00,2073.00,1102.00
1098,965.56,2381.51,71.38,2114.00,1108.00
1107,966.91,2396.01,77.36,2074.00,1089.00
1116,968.26,2410.45,15.99,2000.00,1089.00
1125,969.61,2424.83,0.00,1947.00,1076.00
1134,970.96,2439.14,19.11,1968.00,1087.00
1143,972.30,2453.39,35.58,1985.00,1089.00
1152,973.65,2467.58,32.73,1987.00,1093.00
1161,974.99,2481.70,95.15,2004.00,1074.00
1170,976.33,2495.76,33.12,2006.00,1108.00
1179,977.66,2509.76,132.52,2054.00,1099.00
1188,979.00,2523.70,223.49,2092.00,1101.00
1197,980.33,2537.57,32.86,1972.00,1076.00
1206,981.66,2551.38,35.18,2027.00,1129.00
1215,982.98,2565.13,67.42,2008.00,1084.00
1224,984.31,2578.82,29.36,1999.00,1072.00
1233,985.63,2592.44,86.07,2048.00,1078.00
1242,986.95,2606.01,228.12,2205.00,1146.00
1251,988.27,2619.51,282.13,2219.00,1125.00
1260,989.58,2632.95,81.30,2135.00,1129.00
1269,990.89,2646.33,0.00,2137.00,1180.00
1278,992.20,2659.65,96.45,2168.00,1121.00
1287,993.51,2672.91,0.00,2156.00,1121.00
1296,994.81,2686.10,7.86,2219.00,1118.00
1305,996.12,2699.24,316.47,2395.00,1127.00
1314,997.41,2712.32,681.15,2595.00,1144.00
1323,998.71,2725.33,288.05,2505.00,1112.00
1332,1000.01,2738.29,722.09,2756.00,1156.00
1341,1001.30,2751.18,1527.24,3073.00,1203.00
1350,1002.59,2764.02,59.74,2616.00,1188.00
1359,1003.87,2776.79,9.12,2553.00,1125.00
1368,1005.15,2789.51,10.39,2591.00,1120.00
1377,1006.43,2802.17,0.00,2661.00,1131.00
1386,1007.71,2814.77,0.00,2773.00,1070.00
1395,1008.99,2827.30,211.49,3088.00,1093.00
1404,1010.26,2839.78,2616.92,3834.00,1129.00
1413,1011.53,2852.21,7481.44,5349.00,1110.00
1422,1012.80,2864.57,24490.43,9338.00,1180.00
1431,1014.06,2876.87,16437.88,7643.00,1084.00
1440,1015.32,2889.12,20316.01,8294.00,1139.00
1449,1016.58,2901.31,21072.62,8506.00,1127.00
1458,1017.83,2913.44,32747.93,10752.00,1085.00
1467,1019.09,2925.51,28223.05,9767.00,1137.00
1476,1020.33,2937.53,23532.25,8165.00,1156.00
1485,1021.58,2949.49,16007.13,6479.00,1142.00
1494,1022.82,2961.39,9574.48,4972.00,1118.00
1503,1024.07,2973.23,2995.32,3548.00,1180.00
1512,1025.30,2985.02,290.35,2876.00,1087.00
1521,1026.54,2996.75,0.00,2635.00,1137.00
1530,1027.77,3008.43,59.74,2523.00,1133.00
1539,1029.00,3020.05,0.00,2380.00,1099.00
1548,1030.22,3031.61,95.75,2405.00,1110.00
1557,1031.45,3043.12,237.14,2448.00,1133.00
1566,1032.67,3054.57,397.40,2445.00,1095.00
1575,1033.88,3065.97,788.23,2447.00,1042.00
1584,1035.10,3077.31,842.01,2551.00,1137.00
1593,1036.31,3088.60,1518.08,2631.00,1131.00
1602,1037.52,3099.83,2218.29,2684.00,1112.00
1611,1038.72,3111.00,2251.79,2716.00,1154.00
1620,1039.92,3122.13,2522.16,2726.00,1148.00
1629,1041.12,3133.20,2108.30,2690.00,1173.00
1638,1042.32,3144.21,2097.86,2616.00,1118.00
1647,1043.51,3155.17,2046.01,2593.00,1135.00
1656,1044.70,3166.08,1013.16,2521.00,1177.00
1665,1045.88,3176.93,856.34,2467.00,1175.00
1674,1047.07,3187.73,995.92,2395.00,1114.00
1683,1048.24,3198.48,615.53,2412.00,1178.00
1692,1049.42,3209.17,434.77,2355.00,1159.00
1701,1050.59,3219.81,139.26,2280.00,1129.00
1710,1051.76,3230.40,294.39,2308.00,1175.00
1719,1052.93,3240.94,156.73,2209.00,1101.00
1728,1054.10,3251.42,754.72,2270.00,1150.00
1737,1055.26,3261.86,2225.69,2306.00,1156.00
1746,1056.41,3272.24,3760.58,2388.00,1188.00
1755,1057.57,3282.57,8354.07,2654.00,1209.00
1764,1058.72,3292.85,15562.68,2902.00,1156.00
1773,1059.87,3303.07,10027.11,2551.00,1150.00
1782,1061.01,3313.25,5298.15,2204.00,1150.00
1791,1062.15,3323.38,3810.87,2023.00,1114.00
1800,1063.29,3333.45,2510.37,1942.00,1133.00
1809,1064.42,3343.48,5784.73,2074.00,1158.00
1818,1065.55,3353.45,5812.48,2025.00,1135.00
1827,1066.68,3363.38,4680.99,1913.00,1152.00
1836,1067.81,3373.25,2022.93,1718.00,1097.00
1845,1068.93,3383.08,1418.88,1634.00,1087.00
1854,1070.05,3392.85,278.43,1687.00,1203.00
1863,1071.16,3402.58,12.85,1556.00,1123.00
1872,1072.27,3412.26,1452.10,1571.00,1125.00
1881,1073.38,3421.89,1754.04,1488.00,1065.00
1890,1074.49,3431.47,293.50,1480.00,1127.00
1899,1075.59,3441.00,1290.97,1476.00,1112.00
1908,1076.69,3450.49,1911.04,1486.00,1140.00
1917,1077.78,3459.93,1276.36,1406.00,1104.00
1926,1078.87,3469.32,1913.54,1440.00,1139.00
1935,1079.96,3478.66,1629.60,1387.00,1118.00
1944,1081.05,3487.95,208.77,1385.00,1169.00
1953,1082.13,3497.20,937.41,1351.00,1139.00
1962,1083.21,3506.40,1273.25,1306.00,1102.00
1971,1084.28,3515.56,856.86,1370.00,1186.00
1980,1085.36,3524.67,696.90,1296.00,1131.00
1989,1086.42,3533.73,2535.12,1268.00,1085.00
1998,1087.49,3542.74,658.47,1271.00,1131.00
2007,1088.55,3551.71,1660.82,1235.00,1091.00
2016,1089.61,3560.64,1077.54,1218.00,1089.00
2025,1090.67,3569.52,1756.62,1233.00,1108.00
2034,1091.72,3578.35,1253.08,1163.00,1047.00
2043,1092.77,3587.14,1112.78,1154.00,1047.00
2047,1093.23,3591.03,464.07,1131.00,1023.00

File: benzene.csv
ENLIGHTEN Version,4.1.22
Measurement ID,20250220-202605-414334-WP-01977
Serial Number,WP-01977
Model,WP-785X-F13-R-ILC
Detector,S16011-1106
Label,benzene
Declared Match,
Declared Score,0
Scan Averaging,10
Boxcar,0
Technique,Raman
Baseline Correction Algo,AirPLS
ROI Pixel Start,47
ROI Pixel End,2047
ROI Start Line,0
ROI Stop Line,63
CCD C4,1.38617e-12
Slit Width,25
Cropped,True
Interpolated,False
Wavenumber Correction,-0.100481
Raman Intensity Corrected,True
Deconvolved,True
Region,
High Gain Mode,False
Laser Power mW,
Electrical Dark Correction,False
Battery %,
Device ID,<DeviceID USB:0x24aa:0x1000:0:1>
FW Version,10.0.0.10
FPGA Version,035-001
BLE Version,
Prefix,enlighten
Suffix,
Preset,
Auto-Raman,True
Session Count,0
Plugin Name,
Integration Time,32
Timestamp,2025-02-20 20:26:05.414334
Note,
Temperature,0
CCD C0,793.274
CCD C1,0.153259
CCD C2,1.40788e-05
CCD C3,-1.132e-08
CCD Offset,0
CCD Gain,1.9
CCD Offset Odd,0
CCD Gain Odd,1.9
Laser Wavelength,785.032
Laser Enable,False
Laser Power %,0
Laser Temperature,0
Pixel Count,2048

Pixel,Wavelength,Wavenumber,Processed,Raw,Dark
0,793.27,132.25,NA,853.20,850.10
9,794.65,154.15,NA,853.20,849.60
18,796.04,176.01,NA,852.00,851.40
27,797.42,197.83,NA,854.70,851.80
36,798.81,219.60,NA,853.00,850.60
45,800.20,241.33,NA,951.70,850.80
54,801.59,263.02,0.66,928.40,853.60
63,802.98,284.66,2.21,920.40,852.00
72,804.38,306.26,0.00,913.30,852.60
81,805.77,327.82,0.23,914.60,850.20
90,807.17,349.32,7.01,926.80,852.10
99,808.57,370.78,15.51,941.90,853.00
108,809.98,392.19,53.78,996.20,850.60
117,811.38,413.56,57.15,1004.60,851.90
126,812.79,434.87,22.94,954.90,851.10
135,814.19,456.14,12.55,937.40,848.60
144,815.60,477.36,7.49,934.80,852.20
153,817.01,498.52,2.00,927.00,850.50
162,818.42,519.64,0.00,924.10,850.40
171,819.84,540.70,6.37,933.80,850.40
180,821.25,561.71,20.44,959.50,850.20
189,822.67,582.67,78.74,1056.50,849.80
198,824.09,603.57,1283.06,2878.90,852.00
207,825.50,624.43,163.24,1231.30,852.10
216,826.92,645.22,45.45,1002.40,850.00
225,828.34,665.97,39.10,987.80,846.90
234,829.77,686.66,46.58,1009.10,855.60
243,831.19,707.29,16.81,954.30,850.40
252,832.61,727.87,2.14,935.10,853.10
261,834.04,748.39,0.00,925.00,850.00
270,835.47,768.85,0.00,931.00,850.30
279,836.89,789.26,17.11,975.40,851.60
288,838.32,809.61,58.54,1053.40,848.20
297,839.75,829.90,47.18,1043.50,851.20
306,841.18,850.14,257.54,1359.30,852.20
315,842.61,870.31,25.93,1021.10,849.40
324,844.04,890.43,3.60,985.50,846.80
333,845.47,910.49,0.00,991.60,849.00
342,846.90,930.49,7.85,1020.90,849.40
351,848.33,950.43,61.22,1125.00,850.40
360,849.77,970.31,417.13,1896.00,852.50
369,851.20,990.12,23338.77,36577.00,851.50
378,852.63,1009.88,640.28,2399.80,852.00
387,854.07,1029.58,100.41,1219.30,851.60
396,855.50,1049.21,21.17,1088.40,851.20
405,856.94,1068.79,4.35,1064.30,851.60
414,858.37,1088.30,11.14,1067.80,849.10
423,859.81,1107.75,0.38,1048.70,850.00
432,861.25,1127.14,26.71,1098.50,851.60
441,862.68,1146.46,163.05,1323.70,848.70
450,864.12,1165.73,570.29,2172.30,851.50
459,865.55,1184.93,1113.94,3052.40,849.20
468,866.99,1204.06,135.11,1302.80,852.10
477,868.43,1223.14,37.40,1128.60,848.50
486,869.86,1242.15,4.03,1076.30,850.70
495,871.30,1261.10,3.08,1076.10,849.50
504,872.73,1279.98,5.12,1088.10,849.20
513,874.17,1298.80,27.05,1135.70,848.30
522,875.60,1317.55,54.01,1190.30,852.40
531,877.04,1336.24,61.67,1212.00,850.00
540,878.47,1354.87,82.90,1252.50,849.30
549,879.91,1373.43,92.53,1274.20,849.80
558,881.34,1391.93,61.88,1241.80,848.20
567,882.78,1410.36,112.06,1319.90,847.20
576,884.21,1428.73,39.62,1216.30,849.80
585,885.64,1447.03,25.83,1201.80,846.30
594,887.08,1465.26,27.05,1215.40,849.00
603,888.51,1483.43,47.84,1251.30,849.80
612,889.94,1501.54,17.93,1217.60,850.40
621,891.37,1519.58,26.84,1225.70,848.80
630,892.80,1537.56,52.97,1259.30,849.00
639,894.23,1555.46,139.84,1383.00,849.80
648,895.66,1573.31,517.78,1981.60,849.40
657,897.09,1591.09,1436.20,3184.90,850.00
666,898.52,1608.80,1281.64,2799.00,849.80
675,899.95,1626.44,245.17,1497.20,850.40
684,901.37,1644.02,90.49,1258.20,847.80
693,902.80,1661.54,45.31,1187.40,852.40
702,904.22,1678.99,27.57,1150.20,847.20
711,905.64,1696.37,48.38,1167.70,850.10
720,907.07,1713.68,24.94,1129.50,848.20
729,908.49,1730.93,1.33,1090.70,848.80
738,909.91,1748.12,1.84,1080.50,850.00
747,911.33,1765.23,3.04,1071.90,850.70
756,912.75,1782.29,6.04,1064.60,849.20
765,914.16,1799.27,9.74,1056.70,849.40
774,915.58,1816.19,7.66,1046.00,847.80
783,916.99,1833.04,18.95,1051.60,850.10
792,918.41,1849.83,11.38,1039.80,852.10
801,919.82,1866.55,18.30,1035.10,848.40
810,921.23,1883.20,25.59,1036.70,849.50
819,922.64,1899.79,19.71,1023.50,850.00
828,924.05,1916.31,17.83,1014.70,849.80
837,925.46,1932.77,46.78,1036.30,851.10
846,926.86,1949.16,27.48,1007.50,848.50
855,928.27,1965.48,26.11,995.20,848.00
864,929.67,1981.74,31.90,996.60,850.40
873,931.07,1997.93,9.43,969.10,851.60
882,932.47,2014.06,11.97,962.00,848.70
891,933.87,2030.12,9.30,955.40,850.80
900,935.27,2046.11,11.19,944.90,850.20
909,936.66,2062.04,0.00,931.20,853.40
918,938.06,2077.91,1.31,921.30,847.70
927,939.45,2093.70,0.00,915.80,849.20
936,940.84,2109.44,10.72,920.60,847.80
945,942.23,2125.10,5.77,914.20,848.60
954,943.62,2140.70,1.90,907.90,850.80
963,945.00,2156.24,3.39,904.90,848.00
972,946.39,2171.71,5.45,906.10,850.20
981,947.77,2187.12,37.07,926.00,848.20
990,949.15,2202.46,13.90,906.50,846.70
999,950.53,2217.73,27.41,913.90,849.60
1008,951.90,2232.94,5.90,897.80,849.60
1017,953.28,2248.09,0.00,893.50,852.50
1026,954.65,2263.17,3.55,893.40,848.70
1035,956.02,2278.19,7.87,895.50,849.60
1044,957.39,2293.14,44.61,924.00,852.00
1053,958.75,2308.03,12.89,897.80,849.20
1062,960.12,2322.85,2.76,888.40,851.40
1071,961.48,2337.61,8.34,888.60,849.00
1080,962.84,2352.31,28.05,899.80,847.80
1089,964.20,2366.94,10.50,891.00,851.20
1098,965.56,2381.51,33.06,901.50,849.80
1107,966.91,2396.01,14.31,888.50,850.00
1116,968.26,2410.45,12.62,883.10,847.60
1125,969.61,2424.83,8.37,880.60,848.40
1134,970.96,2439.14,17.40,887.60,849.60
1143,972.30,2453.39,79.48,929.10,851.00
1152,973.65,2467.58,27.17,899.00,851.10
1161,974.99,2481.70,22.13,888.60,850.40
1170,976.33,2495.76,25.19,889.30,850.00
1179,977.66,2509.76,45.63,901.00,851.00
1188,979.00,2523.70,44.68,901.50,851.10
1197,980.33,2537.57,83.53,924.50,849.00
1206,981.66,2551.38,179.84,964.40,849.40
1215,982.98,2565.13,35.29,891.20,848.30
1224,984.31,2578.82,39.07,889.90,847.60
1233,985.63,2592.44,29.68,885.80,849.00
1242,986.95,2606.01,72.87,913.70,851.00
1251,988.27,2619.51,499.86,1066.70,849.40
1260,989.58,2632.95,45.42,895.30,849.60
1269,990.89,2646.33,10.98,878.60,854.20
1278,992.20,2659.65,13.42,874.30,850.40
1287,993.51,2672.91,0.00,871.30,854.30
1296,994.81,2686.10,18.74,876.60,849.30
1305,996.12,2699.24,27.66,881.60,852.20
1314,997.41,2712.32,43.75,885.20,850.80
1323,998.71,2725.33,25.40,878.00,849.80
1332,1000.01,2738.29,12.53,874.00,852.00
1341,1001.30,2751.18,36.18,885.30,853.40
1350,1002.59,2764.02,49.26,890.70,854.60
1359,1003.87,2776.79,95.56,902.10,852.60
1368,1005.15,2789.51,80.86,894.80,850.60
1377,1006.43,2802.17,20.74,874.40,852.20
1386,1007.71,2814.77,28.36,871.10,848.30
1395,1008.99,2827.30,6.34,865.00,848.10
1404,1010.26,2839.78,7.69,867.40,849.60
1413,1011.53,2852.21,8.75,868.90,850.90
1422,1012.80,2864.57,13.26,871.50,850.20
1431,1014.06,2876.87,14.22,873.10,848.40
1440,1015.32,2889.12,0.00,875.90,850.90
1449,1016.58,2901.31,0.00,882.10,850.40
1458,1017.83,2913.44,60.84,906.00,850.30
1467,1019.09,2925.51,286.00,959.10,849.40
1476,1020.33,2937.53,249.61,975.90,850.20
1485,1021.58,2949.49,1993.09,1240.30,850.50
1494,1022.82,2961.39,133.28,951.70,850.30
1503,1024.07,2973.23,14.15,924.80,852.40
1512,1025.30,2985.02,17.07,923.30,847.20
1521,1026.54,2996.75,16.61,939.00,851.50
1530,1027.77,3008.43,230.63,976.90,852.80
1539,1029.00,3020.05,673.80,1053.60,850.20
1548,1030.22,3031.61,1758.33,1244.10,850.40
1557,1031.45,3043.12,5168.75,1765.30,850.60
1566,1032.67,3054.57,9124.66,2508.20,851.70
1575,1033.88,3065.97,13934.50,2926.70,847.40
1584,1035.10,3077.31,3395.05,1460.30,853.60
1593,1036.31,3088.60,1530.88,1138.80,849.20
1602,1037.52,3099.83,734.67,1021.90,850.90
1611,1038.72,3111.00,333.78,962.00,850.60
1620,1039.92,3122.13,45.85,927.70,854.10
1629,1041.12,3133.20,9.03,909.30,850.60
1638,1042.32,3144.21,22.33,900.40,850.60
1647,1043.51,3155.17,3.14,895.00,852.00
1656,1044.70,3166.08,345.73,920.60,853.30
1665,1045.88,3176.93,78.87,902.10,852.60
1674,1047.07,3187.73,679.11,934.40,851.20
1683,1048.24,3198.48,58.75,891.50,852.40
1692,1049.42,3209.17,83.27,885.20,850.00
1701,1050.59,3219.81,17.25,879.90,851.60
1710,1051.76,3230.40,50.92,881.00,852.80
1719,1052.93,3240.94,22.99,876.10,851.00
1728,1054.10,3251.42,129.35,880.50,851.00
1737,1055.26,3261.86,74.32,877.80,852.70
1746,1056.41,3272.24,98.25,877.30,852.40
1755,1057.57,3282.57,113.23,878.70,854.20
1764,1058.72,3292.85,100.15,874.50,852.80
1773,1059.87,3303.07,114.24,873.40,852.00
1782,1061.01,3313.25,167.02,874.80,852.70
1791,1062.15,3323.38,144.85,871.90,852.30
1800,1063.29,3333.45,225.18,870.10,848.00
1809,1064.42,3343.48,195.16,871.30,852.20
1818,1065.55,3353.45,154.81,867.10,851.00
1827,1066.68,3363.38,245.88,870.90,852.30
1836,1067.81,3373.25,134.71,863.30,849.70
1845,1068.93,3383.08,99.11,861.90,850.40
1854,1070.05,3392.85,212.92,867.20,853.70
1863,1071.16,3402.58,190.38,864.90,851.60
1872,1072.27,3412.26,240.00,863.50,850.60
1881,1073.38,3421.89,253.09,860.90,847.60
1890,1074.49,3431.47,182.68,860.30,850.40
1899,1075.59,3441.00,329.68,862.40,849.40
1908,1076.69,3450.49,219.31,860.90,851.80
1917,1077.78,3459.93,98.61,857.50,851.90
1926,1078.87,3469.32,123.67,858.40,852.90
1935,1079.96,3478.66,281.30,858.60,849.40
1944,1081.05,3487.95,79.21,856.20,852.20
1953,1082.13,3497.20,272.68,858.80,851.50
1962,1083.21,3506.40,299.99,857.90,850.40
1971,1084.28,3515.56,309.01,858.30,851.40
1980,1085.36,3524.67,153.27,856.70,853.00
1989,1086.42,3533.73,91.56,855.80,853.20
1998,1087.49,3542.74,274.64,856.30,851.40
2007,1088.55,3551.71,185.55,853.80,850.00
2016,1089.61,3560.64,356.97,857.00,850.60
2025,1090.67,3569.52,265.79,854.60,850.80
2034,1091.72,3578.35,113.44,851.60,849.20
2043,1092.77,3587.14,220.34,852.50,849.00
2047,1093.23,3591.03,13.26,850.00,847.70