Folder: ENLIGHTEN/plugins/Raman/MatchingLibrary/785X (part 13)

File: potassium hydrogen phosphate.csv
ENLIGHTEN Version,4.1.22
Measurement ID,20250220-204029-837359-WP-01977
Serial Number,WP-01977
Model,WP-785X-F13-R-ILC
Detector,S16011-1106
Label,potassium hydrogen phosphate
Declared Match,
Declared Score,0
Scan Averaging,1
Boxcar,0
Technique,Raman
Baseline Correction Algo,AirPLS
ROI Pixel Start,47
ROI Pixel End,2047
ROI Start Line,0
ROI Stop Line,63
CCD C4,1.38617e-12
Slit Width,25
Cropped,True
Interpolated,False
Wavenumber Correction,-0.100481
Raman Intensity Corrected,True
Deconvolved,True
Region,
High Gain Mode,False
Laser Power mW,
Electrical Dark Correction,False
Battery %,
Device ID,<DeviceID USB:0x24aa:0x1000:0:1>
FW Version,10.0.0.10
FPGA Version,035-001
BLE Version,
Prefix,enlighten
Suffix,
Preset,
Auto-Raman,True
Session Count,0
Plugin Name,
Integration Time,1690
Timestamp,2025-02-20 20:40:29.8374
Note,
Temperature,0
CCD C0,793.274
CCD C1,0.153259
CCD C2,1.40788e-05
CCD C3,-1.132e-08
CCD Offset,0
CCD Gain,1.9
CCD Offset Odd,0
CCD Gain Odd,1.9
Laser Wavelength,785.032
Laser Enable,False
Laser Power %,0
Laser Temperature,0
Pixel Count,2048

Pixel,Wavelength,Wavenumber,Processed,Raw,Dark
0,793.27,132.25,NA,1290.00,1228.00
9,794.65,154.15,NA,1311.00,1266.00
18,796.04,176.01,NA,1401.00,1327.00
27,797.42,197.83,NA,1437.00,1349.00
36,798.81,219.60,NA,1414.00,1279.00
45,800.20,241.33,NA,4635.00,1306.00
54,801.59,263.02,9.14,5028.00,1404.00
63,802.98,284.66,0.00,5080.00,1382.00
72,804.38,306.26,9.45,5277.00,1338.00
81,805.77,327.82,32.72,5488.00,1285.00
90,807.17,349.32,79.33,5828.00,1336.00
99,808.57,370.78,722.66,7084.00,1372.00
108,809.98,392.19,4889.76,12713.00,1290.00
117,811.38,413.56,2271.85,9592.00,1338.00
126,812.79,434.87,3370.26,10953.00,1321.00
135,814.19,456.14,1090.43,7741.00,1235.00
144,815.60,477.36,581.56,7157.00,1347.00
153,817.01,498.52,655.10,7219.00,1357.00
162,818.42,519.64,1353.54,8258.00,1366.00
171,819.84,540.70,5835.12,14984.00,1270.00
180,821.25,561.71,6646.04,15439.00,1256.00
189,822.67,582.67,396.04,5680.00,1273.00
198,824.09,603.57,1.20,4377.00,1258.00
207,825.50,624.43,0.00,4199.00,1347.00
216,826.92,645.22,0.00,4005.00,1298.00
225,828.34,665.97,0.00,3880.00,1237.00
234,829.77,686.66,0.00,4062.00,1475.00
243,831.19,707.29,0.51,3975.00,1374.00
252,832.61,727.87,0.00,3973.00,1359.00
261,834.04,748.39,0.00,3965.00,1275.00
270,835.47,768.85,0.00,4189.00,1264.00
279,836.89,789.26,0.00,4567.00,1285.00
288,838.32,809.61,61.13,4994.00,1277.00
297,839.75,829.90,4689.75,12222.00,1374.00
306,841.18,850.14,5085.39,14257.00,1338.00
315,842.61,870.31,63.97,5981.00,1313.00
324,844.04,890.43,0.00,5750.00,1258.00
333,845.47,910.49,873.05,7834.00,1275.00
342,846.90,930.49,5241.55,15886.00,1323.00
351,848.33,950.43,20190.55,39531.00,1353.00
360,849.77,970.31,22415.80,42504.00,1317.00
369,851.20,990.12,4412.27,15409.00,1309.00
378,852.63,1009.88,1365.06,9748.00,1366.00
387,854.07,1029.58,0.00,6578.00,1287.00
396,855.50,1049.21,287.38,7210.00,1289.00
405,856.94,1068.79,2528.33,10830.00,1281.00
414,858.37,1088.30,2740.42,11242.00,1237.00
423,859.81,1107.75,1683.01,9702.00,1349.00
432,861.25,1127.14,3890.50,12482.00,1345.00
441,862.68,1146.46,266.94,6902.00,1252.00
450,864.12,1165.73,0.00,6331.00,1287.00
459,865.55,1184.93,0.00,6409.00,1175.00
468,866.99,1204.06,13.80,6974.00,1289.00
477,868.43,1223.14,146.01,7553.00,1241.00
486,869.86,1242.15,669.80,8599.00,1302.00
495,871.30,1261.10,1327.61,9740.00,1252.00
504,872.73,1279.98,2189.31,11257.00,1264.00
513,874.17,1298.80,2754.58,12313.00,1260.00
522,875.60,1317.55,3470.63,13570.00,1308.00
531,877.04,1336.24,3890.46,14253.00,1232.00
540,878.47,1354.87,4048.70,14627.00,1270.00
549,879.91,1373.43,4067.42,14695.00,1300.00
558,881.34,1391.93,3788.59,14238.00,1194.00
567,882.78,1410.36,3395.84,13752.00,1216.00
576,884.21,1428.73,3095.02,13456.00,1308.00
585,885.64,1447.03,3217.51,13571.00,1222.00
594,887.08,1465.26,3248.07,13828.00,1330.00
603,888.51,1483.43,3528.38,14234.00,1285.00
612,889.94,1501.54,3631.09,14371.00,1226.00
621,891.37,1519.58,3662.82,14412.00,1180.00
630,892.80,1537.56,3516.06,14266.00,1232.00
639,894.23,1555.46,3036.16,13592.00,1230.00
648,895.66,1573.31,2878.64,13410.00,1252.00
657,897.09,1591.09,2649.29,13063.00,1213.00
666,898.52,1608.80,2549.34,12987.00,1224.00
675,899.95,1626.44,2530.22,12987.00,1233.00
684,901.37,1644.02,2437.85,12905.00,1254.00
693,902.80,1661.54,2226.40,12679.00,1323.00
702,904.22,1678.99,1890.28,12170.00,1215.00
711,905.64,1696.37,1623.04,11880.00,1285.00
720,907.07,1713.68,1185.53,11280.00,1216.00
729,908.49,1730.93,710.48,10697.00,1239.00
738,909.91,1748.12,535.16,10437.00,1245.00
747,911.33,1765.23,143.63,9930.00,1228.00
756,912.75,1782.29,61.24,9585.00,1196.00
765,914.16,1799.27,182.74,9444.00,1222.00
774,915.58,1816.19,192.75,9116.00,1196.00
783,916.99,1833.04,369.52,9040.00,1252.00
792,918.41,1849.83,526.73,8896.00,1260.00
801,919.82,1866.55,547.71,8582.00,1241.00
810,921.23,1883.20,643.71,8419.00,1277.00
819,922.64,1899.79,604.80,7969.00,1203.00
828,924.05,1916.31,674.20,7762.00,1247.00
837,925.46,1932.77,649.85,7420.00,1243.00
846,926.86,1949.16,504.32,6944.00,1260.00
855,928.27,1965.48,541.90,6598.00,1177.00
864,929.67,1981.74,412.36,6226.00,1260.00
873,931.07,1997.93,204.21,5729.00,1283.00
882,932.47,2014.06,205.30,5361.00,1211.00
891,933.87,2030.12,45.36,4956.00,1239.00
900,935.27,2046.11,0.00,4681.00,1317.00
909,936.66,2062.04,25.59,4427.00,1300.00
918,938.06,2077.91,0.00,4062.00,1226.00
927,939.45,2093.70,0.00,3829.00,1243.00
936,940.84,2109.44,24.96,3701.00,1224.00
945,942.23,2125.10,50.59,3595.00,1260.00
954,943.62,2140.70,0.00,3415.00,1290.00
963,945.00,2156.24,0.00,3242.00,1201.00
972,946.39,2171.71,0.00,3172.00,1226.00
981,947.77,2187.12,0.00,3079.00,1188.00
990,949.15,2202.46,60.23,3149.00,1249.00
999,950.53,2217.73,6.16,3022.00,1199.00
1008,951.90,2232.94,14.02,2991.00,1194.00
1017,953.28,2248.09,80.63,3096.00,1285.00
1026,954.65,2263.17,7.59,2948.00,1203.00
1035,956.02,2278.19,3.03,2957.00,1241.00
1044,957.39,2293.14,69.10,2990.00,1235.00
1053,958.75,2308.03,91.23,2963.00,1203.00
1062,960.12,2322.85,69.52,2961.00,1222.00
1071,961.48,2337.61,19.08,2919.00,1232.00
1080,962.84,2352.31,64.04,2957.00,1245.00
1089,964.20,2366.94,183.37,3033.00,1254.00
1098,965.56,2381.51,281.42,3056.00,1245.00
1107,966.91,2396.01,270.21,3056.00,1275.00
1116,968.26,2410.45,209.97,2957.00,1245.00
1125,969.61,2424.83,258.87,2919.00,1218.00
1134,970.96,2439.14,311.15,2936.00,1232.00
1143,972.30,2453.39,361.72,2938.00,1230.00
1152,973.65,2467.58,537.86,3020.00,1239.00
1161,974.99,2481.70,658.51,3043.00,1224.00
1170,976.33,2495.76,707.22,3071.00,1256.00
1179,977.66,2509.76,492.26,2906.00,1254.00
1188,979.00,2523.70,405.04,2859.00,1285.00
1197,980.33,2537.57,394.19,2710.00,1199.00
1206,981.66,2551.38,120.60,2642.00,1306.00
1215,982.98,2565.13,65.84,2502.00,1224.00
1224,984.31,2578.82,77.13,2450.00,1215.00
1233,985.63,2592.44,26.35,2386.00,1220.00
1242,986.95,2606.01,0.00,2411.00,1321.00
1251,988.27,2619.51,72.99,2428.00,1321.00
1260,989.58,2632.95,0.19,2361.00,1330.00
1269,990.89,2646.33,0.00,2376.00,1395.00
1278,992.20,2659.65,33.38,2302.00,1308.00
1287,993.51,2672.91,91.54,2295.00,1283.00
1296,994.81,2686.10,5.07,2274.00,1304.00
1305,996.12,2699.24,0.00,2272.00,1323.00
1314,997.41,2712.32,11.00,2299.00,1330.00
1323,998.71,2725.33,134.76,2276.00,1260.00
1332,1000.01,2738.29,70.93,2359.00,1353.00
1341,1001.30,2751.18,219.23,2464.00,1414.00
1350,1002.59,2764.02,128.55,2376.00,1351.00
1359,1003.87,2776.79,63.62,2295.00,1292.00
1368,1005.15,2789.51,195.60,2352.00,1319.00
1377,1006.43,2802.17,279.39,2329.00,1275.00
1386,1007.71,2814.77,278.73,2283.00,1228.00
1395,1008.99,2827.30,160.57,2274.00,1252.00
1404,1010.26,2839.78,212.67,2359.00,1342.00
1413,1011.53,2852.21,343.08,2323.00,1273.00
1422,1012.80,2864.57,208.73,2397.00,1395.00
1431,1014.06,2876.87,344.83,2264.00,1254.00
1440,1015.32,2889.12,440.98,2329.00,1317.00
1449,1016.58,2901.31,402.25,2276.00,1294.00
1458,1017.83,2913.44,405.08,2215.00,1251.00
1467,1019.09,2925.51,330.13,2232.00,1311.00
1476,1020.33,2937.53,343.80,2272.00,1368.00
1485,1021.58,2949.49,520.33,2219.00,1319.00
1494,1022.82,2961.39,496.50,2156.00,1281.00
1503,1024.07,2973.23,99.19,2183.00,1401.00
1512,1025.30,2985.02,251.24,2046.00,1258.00
1521,1026.54,2996.75,416.63,2088.00,1304.00
1530,1027.77,3008.43,335.84,2063.00,1315.00
1539,1029.00,3020.05,268.01,1962.00,1241.00
1548,1030.22,3031.61,36.69,1959.00,1294.00
1557,1031.45,3043.12,15.58,1962.00,1317.00
1566,1032.67,3054.57,61.09,1911.00,1283.00
1575,1033.88,3065.97,61.84,1799.00,1192.00
1584,1035.10,3077.31,290.39,1945.00,1321.00
1593,1036.31,3088.60,166.74,1919.00,1328.00
1602,1037.52,3099.83,0.00,1843.00,1292.00
1611,1038.72,3111.00,70.84,1928.00,1359.00
1620,1039.92,3122.13,200.05,1907.00,1328.00
1629,1041.12,3133.20,296.91,1961.00,1366.00
1638,1042.32,3144.21,103.07,1883.00,1285.00
1647,1043.51,3155.17,98.35,1932.00,1317.00
1656,1044.70,3166.08,381.62,2065.00,1395.00
1665,1045.88,3176.93,374.09,2080.00,1389.00
1674,1047.07,3187.73,1108.76,2042.00,1279.00
1683,1048.24,3198.48,1757.94,2188.00,1372.00
1692,1049.42,3209.17,2149.65,2194.00,1357.00
1701,1050.59,3219.81,2751.28,2194.00,1309.00
1710,1051.76,3230.40,2954.97,2274.00,1382.00
1719,1052.93,3240.94,3446.86,2179.00,1266.00
1728,1054.10,3251.42,4372.68,2310.00,1340.00
1737,1055.26,3261.86,4006.13,2287.00,1370.00
1746,1056.41,3272.24,3920.41,2314.00,1416.00
1755,1057.57,3282.57,3557.22,2300.00,1440.00
1764,1058.72,3292.85,4091.24,2204.00,1342.00
1773,1059.87,3303.07,3262.23,2139.00,1334.00
1782,1061.01,3313.25,3883.73,2126.00,1319.00
1791,1062.15,3323.38,2321.66,2016.00,1292.00
1800,1063.29,3333.45,1673.71,1999.00,1334.00
1809,1064.42,3343.48,1214.38,1993.00,1363.00
1818,1065.55,3353.45,327.20,1932.00,1359.00
1827,1066.68,3363.38,572.06,1917.00,1364.00
1836,1067.81,3373.25,988.25,1809.00,1264.00
1845,1068.93,3383.08,1469.69,1801.00,1258.00
1854,1070.05,3392.85,718.94,1900.00,1423.00
1863,1071.16,3402.58,1627.47,1786.00,1308.00
1872,1072.27,3412.26,678.60,1744.00,1327.00
1881,1073.38,3421.89,1063.88,1645.00,1241.00
1890,1074.49,3431.47,1024.56,1672.00,1285.00
1899,1075.59,3441.00,1671.56,1672.00,1302.00
1908,1076.69,3450.49,1279.75,1701.00,1364.00
1917,1077.78,3459.93,1788.61,1581.00,1249.00
1926,1078.87,3469.32,1639.17,1649.00,1336.00
1935,1079.96,3478.66,1577.69,1573.00,1287.00
1944,1081.05,3487.95,2950.15,1649.00,1359.00
1953,1082.13,3497.20,548.50,1575.00,1349.00
1962,1083.21,3506.40,2708.32,1537.00,1279.00
1971,1084.28,3515.56,1169.03,1598.00,1389.00
1980,1085.36,3524.67,1325.31,1511.00,1306.00
1989,1086.42,3533.73,1805.41,1467.00,1273.00
1998,1087.49,3542.74,3504.49,1505.00,1296.00
2007,1088.55,3551.71,202.88,1410.00,1262.00
2016,1089.61,3560.64,0.00,1410.00,1277.00
2025,1090.67,3569.52,183.21,1420.00,1289.00
2034,1091.72,3578.35,511.13,1306.00,1175.00
2043,1092.77,3587.14,1846.15,1319.00,1182.00
2047,1093.23,3591.03,6.94,1258.00,1144.00

File: sodium sulfate.csv
ENLIGHTEN Version,4.1.22
Measurement ID,20250220-204524-005320-WP-01977
Serial Number,WP-01977
Model,WP-785X-F13-R-ILC
Detector,S16011-1106
Label,sodium sulfate
Declared Match,
Declared Score,0
Scan Averaging,5
Boxcar,0
Technique,Raman
Baseline Correction Algo,AirPLS
ROI Pixel Start,47
ROI Pixel End,2047
ROI Start Line,0
ROI Stop Line,63
CCD C4,1.38617e-12
Slit Width,25
Cropped,True
Interpolated,False
Wavenumber Correction,-0.100481
Raman Intensity Corrected,True
Deconvolved,True
Region,
High Gain Mode,False
Laser Power mW,
Electrical Dark Correction,False
Battery %,
Device ID,<DeviceID USB:0x24aa:0x1000:0:1>
FW Version,10.0.0.10
FPGA Version,035-001
BLE Version,
Prefix,enlighten
Suffix,
Preset,
Auto-Raman,True
Session Count,0
Plugin Name,
Integration Time,217
Timestamp,2025-02-20 20:45:24.0053
Note,
Temperature,0
CCD C0,793.274
CCD C1,0.153259
CCD C2,1.40788e-05
CCD C3,-1.132e-08
CCD Offset,0
CCD Gain,1.9
CCD Offset Odd,0
CCD Gain Odd,1.9
Laser Wavelength,785.032
Laser Enable,False
Laser Power %,0
Laser Temperature,0
Pixel Count,2048

Pixel,Wavelength,Wavenumber,Processed,Raw,Dark
0,793.27,132.25,NA,901.40,888.80
9,794.65,154.15,NA,908.80,896.20
18,796.04,176.01,NA,908.20,902.40
27,797.42,197.83,NA,921.20,905.80
36,798.81,219.60,NA,917.00,900.60
45,800.20,241.33,NA,1319.20,903.60
54,801.59,263.02,0.00,1374.20,914.60
63,802.98,284.66,6.89,1412.80,907.00
72,804.38,306.26,1.88,1441.40,907.80
81,805.77,327.82,10.13,1479.40,901.20
90,807.17,349.32,5.10,1517.00,904.20
99,808.57,370.78,0.51,1561.60,913.40
108,809.98,392.19,0.54,1589.20,898.40
117,811.38,413.56,58.89,1696.40,906.80
126,812.79,434.87,386.79,2218.80,906.60
135,814.19,456.14,1927.88,4529.40,901.00
144,815.60,477.36,719.06,2752.60,905.20
153,817.01,498.52,99.82,1668.20,908.40
162,818.42,519.64,7.21,1481.00,907.00
171,819.84,540.70,0.00,1385.60,894.40
180,821.25,561.71,3.55,1370.80,888.00
189,822.67,582.67,1.76,1381.60,903.00
198,824.09,603.57,93.14,1538.00,901.60
207,825.50,624.43,2181.04,4843.80,911.60
216,826.92,645.22,1763.60,4059.60,899.60
225,828.34,665.97,36.92,1367.40,896.40
234,829.77,686.66,0.00,1285.60,923.00
243,831.19,707.29,0.00,1263.40,910.20
252,832.61,727.87,6.57,1268.00,905.00
261,834.04,748.39,6.26,1263.40,897.60
270,835.47,768.85,7.17,1263.60,897.40
279,836.89,789.26,25.33,1291.20,899.40
288,838.32,809.61,25.13,1293.00,901.60
297,839.75,829.90,8.32,1276.40,912.80
306,841.18,850.14,0.00,1252.00,907.00
315,842.61,870.31,5.24,1260.00,899.20
324,844.04,890.43,0.00,1261.60,896.80
333,845.47,910.49,0.68,1314.00,896.40
342,846.90,930.49,0.00,1364.80,902.60
351,848.33,950.43,0.00,1473.60,898.40
360,849.77,970.31,152.00,1937.00,902.20
369,851.20,990.12,20873.04,34679.60,903.80
378,852.63,1009.88,417.23,2604.00,917.00
387,854.07,1029.58,0.07,1602.00,895.60
396,855.50,1049.21,0.00,1491.20,902.60
405,856.94,1068.79,0.00,1504.40,902.20
414,858.37,1088.30,105.70,1861.80,887.60
423,859.81,1107.75,873.61,3433.00,907.80
432,861.25,1127.14,976.67,3507.40,909.20
441,862.68,1146.46,757.81,3601.20,897.60
450,864.12,1165.73,78.84,1948.00,902.20
459,865.55,1184.93,0.00,1683.20,888.40
468,866.99,1204.06,0.00,1749.40,896.60
477,868.43,1223.14,45.21,1883.20,895.20
486,869.86,1242.15,126.11,2038.20,900.40
495,871.30,1261.10,197.35,2166.60,897.60
504,872.73,1279.98,300.32,2344.80,898.80
513,874.17,1298.80,419.49,2543.60,896.20
522,875.60,1317.55,523.91,2728.60,903.80
531,877.04,1336.24,583.72,2824.40,892.80
540,878.47,1354.87,630.23,2898.60,893.40
549,879.91,1373.43,610.22,2888.20,901.00
558,881.34,1391.93,578.80,2832.60,889.60
567,882.78,1410.36,538.88,2783.60,894.40
576,884.21,1428.73,500.00,2727.80,902.00
585,885.64,1447.03,516.54,2740.00,893.20
594,887.08,1465.26,508.29,2746.80,905.00
603,888.51,1483.43,546.55,2805.40,899.40
612,889.94,1501.54,550.95,2803.80,888.80
621,891.37,1519.58,557.03,2804.40,884.80
630,892.80,1537.56,503.04,2738.60,894.00
639,894.23,1555.46,463.60,2682.00,895.40
648,895.66,1573.31,406.46,2606.20,891.60
657,897.09,1591.09,396.77,2582.60,889.20
666,898.52,1608.80,398.14,2585.40,889.20
675,899.95,1626.44,391.53,2576.00,892.60
684,901.37,1644.02,351.72,2523.80,892.40
693,902.80,1661.54,350.08,2526.20,907.00
702,904.22,1678.99,291.74,2432.60,888.40
711,905.64,1696.37,240.15,2382.80,903.60
720,907.07,1713.68,193.54,2308.80,894.00
729,908.49,1730.93,139.16,2235.80,891.20
738,909.91,1748.12,92.37,2173.80,895.80
747,911.33,1765.23,40.02,2104.80,893.20
756,912.75,1782.29,23.12,2051.20,887.60
765,914.16,1799.27,24.71,2011.80,893.00
774,915.58,1816.19,34.96,1966.20,886.00
783,916.99,1833.04,86.42,1984.80,896.00
792,918.41,1849.83,61.43,1916.80,897.60
801,919.82,1866.55,95.87,1900.40,896.20
810,921.23,1883.20,108.25,1870.40,899.60
819,922.64,1899.79,101.41,1810.80,888.40
828,924.05,1916.31,91.53,1760.20,893.60
837,925.46,1932.77,108.32,1723.00,889.60
846,926.86,1949.16,73.15,1645.00,894.40
855,928.27,1965.48,68.63,1587.00,886.40
864,929.67,1981.74,52.02,1538.60,897.20
873,931.07,1997.93,44.60,1482.40,896.00
882,932.47,2014.06,30.05,1424.40,892.80
891,933.87,2030.12,11.24,1373.20,896.00
900,935.27,2046.11,14.02,1341.40,905.00
909,936.66,2062.04,0.00,1293.20,905.40
918,938.06,2077.91,4.91,1259.20,895.60
927,939.45,2093.70,0.00,1221.00,898.40
936,940.84,2109.44,0.00,1197.00,895.00
945,942.23,2125.10,8.32,1183.80,893.80
954,943.62,2140.70,1.23,1164.40,896.40
963,945.00,2156.24,8.67,1152.40,890.60
972,946.39,2171.71,0.00,1128.60,891.20
981,947.77,2187.12,0.00,1113.80,890.60
990,949.15,2202.46,0.11,1118.20,897.40
999,950.53,2217.73,1.35,1102.40,887.40
1008,951.90,2232.94,5.13,1103.60,891.20
1017,953.28,2248.09,0.87,1103.60,900.80
1026,954.65,2263.17,10.60,1094.00,889.40
1035,956.02,2278.19,1.58,1084.40,893.20
1044,957.39,2293.14,7.23,1086.20,894.60
1053,958.75,2308.03,11.96,1080.20,891.80
1062,960.12,2322.85,8.39,1070.80,890.00
1071,961.48,2337.61,6.54,1069.00,894.40
1080,962.84,2352.31,12.63,1064.00,891.00
1089,964.20,2366.94,0.00,1056.00,899.20
1098,965.56,2381.51,7.01,1057.00,895.20
1107,966.91,2396.01,13.09,1056.20,895.80
1116,968.26,2410.45,17.73,1055.00,895.60
1125,969.61,2424.83,2.05,1039.60,891.40
1134,970.96,2439.14,7.53,1042.80,894.20
1143,972.30,2453.39,17.71,1041.40,891.60
1152,973.65,2467.58,24.15,1044.20,895.00
1161,974.99,2481.70,39.64,1049.80,894.20
1170,976.33,2495.76,36.56,1045.40,894.80
1179,977.66,2509.76,14.37,1033.00,896.20
1188,979.00,2523.70,19.62,1031.80,898.80
1197,980.33,2537.57,14.53,1012.20,885.40
1206,981.66,2551.38,6.72,1021.40,901.60
1215,982.98,2565.13,14.30,1010.80,891.60
1224,984.31,2578.82,14.71,1002.80,888.60
1233,985.63,2592.44,5.51,1000.40,893.00
1242,986.95,2606.01,10.14,1012.00,904.60
1251,988.27,2619.51,25.41,1011.20,902.80
1260,989.58,2632.95,13.34,1004.60,903.20
1269,990.89,2646.33,20.80,1011.60,911.80
1278,992.20,2659.65,18.63,997.00,901.40
1287,993.51,2672.91,15.05,996.80,904.20
1296,994.81,2686.10,24.50,997.20,903.60
1305,996.12,2699.24,2.61,990.40,908.00
1314,997.41,2712.32,14.75,992.00,906.20
1323,998.71,2725.33,11.11,980.20,899.40
1332,1000.01,2738.29,31.12,988.40,904.20
1341,1001.30,2751.18,34.04,1000.40,916.80
1350,1002.59,2764.02,19.18,985.80,909.80
1359,1003.87,2776.79,13.90,974.20,901.20
1368,1005.15,2789.51,11.97,975.20,905.00
1377,1006.43,2802.17,4.36,968.60,901.80
1386,1007.71,2814.77,53.73,967.60,892.20
1395,1008.99,2827.30,44.03,967.40,895.80
1404,1010.26,2839.78,5.68,967.60,905.80
1413,1011.53,2852.21,7.77,962.00,900.00
1422,1012.80,2864.57,23.79,978.00,912.40
1431,1014.06,2876.87,29.51,957.20,892.40
1440,1015.32,2889.12,38.36,969.80,904.60
1449,1016.58,2901.31,12.99,958.80,898.40
1458,1017.83,2913.44,62.14,961.00,893.40
1467,1019.09,2925.51,28.97,958.60,899.80
1476,1020.33,2937.53,22.44,973.00,915.40
1485,1021.58,2949.49,23.98,964.20,908.20
1494,1022.82,2961.39,32.36,956.80,899.20
1503,1024.07,2973.23,6.40,968.20,915.60
1512,1025.30,2985.02,38.27,952.20,894.80
1521,1026.54,2996.75,58.41,960.60,901.80
1530,1027.77,3008.43,55.74,962.40,904.20
1539,1029.00,3020.05,57.65,953.60,895.00
1548,1030.22,3031.61,53.66,959.00,896.60
1557,1031.45,3043.12,6.03,960.60,907.00
1566,1032.67,3054.57,49.97,958.80,897.80
1575,1033.88,3065.97,57.13,942.20,881.80
1584,1035.10,3077.31,83.12,966.40,903.20
1593,1036.31,3088.60,1.35,959.40,905.40
1602,1037.52,3099.83,23.89,963.60,904.40
1611,1038.72,3111.00,36.52,970.80,909.40
1620,1039.92,3122.13,31.29,967.20,903.80
1629,1041.12,3133.20,0.00,977.80,914.40
1638,1042.32,3144.21,0.00,968.20,902.40
1647,1043.51,3155.17,0.00,978.40,906.60
1656,1044.70,3166.08,54.58,996.80,913.60
1665,1045.88,3176.93,58.34,1002.20,913.20
1674,1047.07,3187.73,77.72,993.00,900.20
1683,1048.24,3198.48,142.73,1013.80,914.00
1692,1049.42,3209.17,214.85,1015.40,909.00
1701,1050.59,3219.81,326.55,1020.00,904.60
1710,1051.76,3230.40,558.36,1042.00,911.60
1719,1052.93,3240.94,567.60,1028.20,896.60
1728,1054.10,3251.42,668.15,1041.80,905.40
1737,1055.26,3261.86,686.93,1047.80,911.00
1746,1056.41,3272.24,764.00,1050.20,911.60
1755,1057.57,3282.57,615.65,1047.20,920.40
1764,1058.72,3292.85,532.81,1028.40,909.40
1773,1059.87,3303.07,462.34,1020.20,908.20
1782,1061.01,3313.25,378.52,1012.20,905.00
1791,1062.15,3323.38,440.29,1010.60,904.20
1800,1063.29,3333.45,444.16,1003.60,898.60
1809,1064.42,3343.48,446.14,1006.80,905.00
1818,1065.55,3353.45,293.83,992.60,903.60
1827,1066.68,3363.38,242.66,989.00,905.00
1836,1067.81,3373.25,147.43,973.00,897.40
1845,1068.93,3383.08,213.06,973.00,898.60
1854,1070.05,3392.85,407.64,988.20,912.00
1863,1071.16,3402.58,310.59,971.80,902.40
1872,1072.27,3412.26,188.35,966.40,906.00
1881,1073.38,3421.89,349.73,952.60,891.00
1890,1074.49,3431.47,187.64,952.60,899.00
1899,1075.59,3441.00,230.83,952.40,899.00
1908,1076.69,3450.49,397.88,958.20,905.40
1917,1077.78,3459.93,457.03,944.60,894.40
1926,1078.87,3469.32,178.57,948.20,909.60
1935,1079.96,3478.66,240.77,938.80,901.00
1944,1081.05,3487.95,275.31,943.40,908.60
1953,1082.13,3497.20,321.91,944.40,911.00
1962,1083.21,3506.40,26.87,931.80,907.00
1971,1084.28,3515.56,323.51,945.00,916.80
1980,1085.36,3524.67,116.75,931.80,908.20
1989,1086.42,3533.73,509.49,927.80,897.80
1998,1087.49,3542.74,15.02,928.60,908.60
2007,1088.55,3551.71,547.39,922.40,894.00
2016,1089.61,3560.64,465.47,922.80,898.40
2025,1090.67,3569.52,416.70,921.00,897.20
2034,1091.72,3578.35,205.48,904.20,886.00
2043,1092.77,3587.14,232.48,906.60,888.80
2047,1093.23,3591.03,86.62,896.60,878.80