Folder: ENLIGHTEN/plugins/Raman/MatchingLibrary/785X (part 12)

File: polyethylene glycol.csv
ENLIGHTEN Version,4.1.22
Measurement ID,20250220-203344-882014-WP-01977
Serial Number,WP-01977
Model,WP-785X-F13-R-ILC
Detector,S16011-1106
Label,polyethylene glycol
Declared Match,
Declared Score,0
Scan Averaging,1
Boxcar,0
Technique,Raman
Baseline Correction Algo,AirPLS
ROI Pixel Start,47
ROI Pixel End,2047
ROI Start Line,0
ROI Stop Line,63
CCD C4,1.38617e-12
Slit Width,25
Cropped,True
Interpolated,False
Wavenumber Correction,-0.100481
Raman Intensity Corrected,True
Deconvolved,True
Region,
High Gain Mode,False
Laser Power mW,
Electrical Dark Correction,False
Battery %,
Device ID,<DeviceID USB:0x24aa:0x1000:0:1>
FW Version,10.0.0.10
FPGA Version,035-001
BLE Version,
Prefix,enlighten
Suffix,
Preset,
Auto-Raman,True
Session Count,0
Plugin Name,
Integration Time,2000
Timestamp,2025-02-20 20:33:44.882
Note,
Temperature,0
CCD C0,793.274
CCD C1,0.153259
CCD C2,1.40788e-05
CCD C3,-1.132e-08
CCD Offset,0
CCD Gain,1.9
CCD Offset Odd,0
CCD Gain Odd,1.9
Laser Wavelength,785.032
Laser Enable,False
Laser Power %,0
Laser Temperature,0
Pixel Count,2048

Pixel,Wavelength,Wavenumber,Processed,Raw,Dark
0,793.27,132.25,NA,1340.00,1309.00
9,794.65,154.15,NA,1406.00,1336.00
18,796.04,176.01,NA,1488.00,1406.00
27,797.42,197.83,NA,1522.00,1452.00
36,798.81,219.60,NA,1471.00,1364.00
45,800.20,241.33,NA,5325.00,1427.00
54,801.59,263.02,248.94,5835.00,1539.00
63,802.98,284.66,1394.01,7157.00,1507.00
72,804.38,306.26,90.94,5410.00,1469.00
81,805.77,327.82,0.85,5235.00,1427.00
90,807.17,349.32,339.40,5748.00,1459.00
99,808.57,370.78,809.87,6448.00,1501.00
108,809.98,392.19,158.34,5262.00,1421.00
117,811.38,413.56,305.29,5412.00,1475.00
126,812.79,434.87,311.71,5363.00,1454.00
135,814.19,456.14,399.16,5298.00,1355.00
144,815.60,477.36,434.28,5372.00,1456.00
153,817.01,498.52,330.85,5133.00,1486.00
162,818.42,519.64,129.56,4761.00,1492.00
171,819.84,540.70,695.47,5357.00,1385.00
180,821.25,561.71,10.10,4167.00,1355.00
189,822.67,582.67,601.92,4751.00,1372.00
198,824.09,603.57,0.00,3836.00,1366.00
207,825.50,624.43,37.62,3861.00,1461.00
216,826.92,645.22,0.00,3656.00,1391.00
225,828.34,665.97,4.93,3603.00,1332.00
234,829.77,686.66,12.42,3903.00,1651.00
243,831.19,707.29,25.73,3741.00,1494.00
252,832.61,727.87,0.00,3673.00,1476.00
261,834.04,748.39,0.00,3616.00,1404.00
270,835.47,768.85,0.00,3772.00,1363.00
279,836.89,789.26,92.98,4199.00,1402.00
288,838.32,809.61,471.70,4850.00,1395.00
297,839.75,829.90,1567.46,7018.00,1507.00
306,841.18,850.14,3557.67,10623.00,1456.00
315,842.61,870.31,677.72,5617.00,1416.00
324,844.04,890.43,110.44,4309.00,1347.00
333,845.47,910.49,0.00,4100.00,1383.00
342,846.90,930.49,389.51,4662.00,1408.00
351,848.33,950.43,188.82,4260.00,1397.00
360,849.77,970.31,0.00,3827.00,1380.00
369,851.20,990.12,0.00,3954.00,1435.00
378,852.63,1009.88,44.67,4320.00,1484.00
387,854.07,1029.58,245.47,4689.00,1355.00
396,855.50,1049.21,376.29,5233.00,1412.00
405,856.94,1068.79,1493.92,7140.00,1393.00
414,858.37,1088.30,281.38,5175.00,1315.00
423,859.81,1107.75,478.32,5752.00,1439.00
432,861.25,1127.14,2360.71,8823.00,1452.00
441,862.68,1146.46,3136.88,10018.00,1349.00
450,864.12,1165.73,97.64,5495.00,1387.00
459,865.55,1184.93,0.00,5268.00,1258.00
468,866.99,1204.06,0.00,5570.00,1372.00
477,868.43,1223.14,344.51,7111.00,1349.00
486,869.86,1242.15,1584.21,9433.00,1374.00
495,871.30,1261.10,638.13,8343.00,1361.00
504,872.73,1279.98,7325.93,18348.00,1408.00
513,874.17,1298.80,1508.76,10747.00,1374.00
522,875.60,1317.55,508.07,9503.00,1397.00
531,877.04,1336.24,184.72,9205.00,1296.00
540,878.47,1354.87,403.01,9727.00,1327.00
549,879.91,1373.43,457.36,9904.00,1351.00
558,881.34,1391.93,878.76,10483.00,1264.00
567,882.78,1410.36,67.22,9406.00,1315.00
576,884.21,1428.73,99.21,9619.00,1389.00
585,885.64,1447.03,1960.55,12017.00,1315.00
594,887.08,1465.26,2834.37,13792.00,1421.00
603,888.51,1483.43,6713.26,18464.00,1376.00
612,889.94,1501.54,453.40,9720.00,1271.00
621,891.37,1519.58,100.53,8951.00,1239.00
630,892.80,1537.56,120.75,8778.00,1313.00
639,894.23,1555.46,0.00,8349.00,1294.00
648,895.66,1573.31,3.29,8184.00,1328.00
657,897.09,1591.09,49.33,8007.00,1290.00
666,898.52,1608.80,114.16,7914.00,1311.00
675,899.95,1626.44,171.43,7808.00,1309.00
684,901.37,1644.02,176.07,7694.00,1349.00
693,902.80,1661.54,523.71,7929.00,1401.00
702,904.22,1678.99,341.95,7407.00,1252.00
711,905.64,1696.37,442.78,7455.00,1368.00
720,907.07,1713.68,736.41,7546.00,1289.00
729,908.49,1730.93,554.11,7179.00,1319.00
738,909.91,1748.12,358.94,6714.00,1323.00
747,911.33,1765.23,147.63,6219.00,1292.00
756,912.75,1782.29,65.92,5923.00,1277.00
765,914.16,1799.27,19.66,5712.00,1315.00
774,915.58,1816.19,69.97,5524.00,1245.00
783,916.99,1833.04,161.96,5526.00,1344.00
792,918.41,1849.83,181.07,5349.00,1345.00
801,919.82,1866.55,187.32,5161.00,1317.00
810,921.23,1883.20,244.69,5127.00,1376.00
819,922.64,1899.79,331.72,4884.00,1243.00
828,924.05,1916.31,317.59,4753.00,1315.00
837,925.46,1932.77,285.05,4550.00,1309.00
846,926.86,1949.16,210.96,4334.00,1338.00
855,928.27,1965.48,286.08,4115.00,1237.00
864,929.67,1981.74,171.89,3927.00,1328.00
873,931.07,1997.93,35.63,3700.00,1387.00
882,932.47,2014.06,60.47,3479.00,1315.00
891,933.87,2030.12,80.03,3343.00,1321.00
900,935.27,2046.11,34.75,3248.00,1416.00
909,936.66,2062.04,14.58,3077.00,1397.00
918,938.06,2077.91,30.94,2857.00,1289.00
927,939.45,2093.70,8.97,2760.00,1336.00
936,940.84,2109.44,0.00,2617.00,1313.00
945,942.23,2125.10,28.04,2602.00,1336.00
954,943.62,2140.70,9.20,2543.00,1351.00
963,945.00,2156.24,35.82,2420.00,1279.00
972,946.39,2171.71,56.18,2405.00,1290.00
981,947.77,2187.12,3.83,2299.00,1266.00
990,949.15,2202.46,64.45,2403.00,1334.00
999,950.53,2217.73,17.95,2289.00,1281.00
1008,951.90,2232.94,100.84,2280.00,1235.00
1017,953.28,2248.09,15.07,2338.00,1387.00
1026,954.65,2263.17,58.59,2259.00,1290.00
1035,956.02,2278.19,115.62,2317.00,1321.00
1044,957.39,2293.14,30.54,2261.00,1359.00
1053,958.75,2308.03,15.21,2168.00,1302.00
1062,960.12,2322.85,9.81,2131.00,1292.00
1071,961.48,2337.61,14.56,2120.00,1302.00
1080,962.84,2352.31,16.00,2124.00,1321.00
1089,964.20,2366.94,7.54,2112.00,1336.00
1098,965.56,2381.51,30.48,2111.00,1342.00
1107,966.91,2396.01,82.50,2139.00,1349.00
1116,968.26,2410.45,15.64,2061.00,1313.00
1125,969.61,2424.83,44.29,2029.00,1285.00
1134,970.96,2439.14,8.13,2023.00,1308.00
1143,972.30,2453.39,27.37,2037.00,1313.00
1152,973.65,2467.58,112.74,2078.00,1313.00
1161,974.99,2481.70,77.55,2052.00,1313.00
1170,976.33,2495.76,165.15,2118.00,1340.00
1179,977.66,2509.76,161.38,2107.00,1336.00
1188,979.00,2523.70,139.88,2124.00,1376.00
1197,980.33,2537.57,160.06,2004.00,1260.00
1206,981.66,2551.38,234.25,2154.00,1382.00
1215,982.98,2565.13,378.51,2137.00,1304.00
1224,984.31,2578.82,321.30,2101.00,1309.00
1233,985.63,2592.44,212.81,2014.00,1302.00
1242,986.95,2606.01,85.76,2059.00,1414.00
1251,988.27,2619.51,49.65,2027.00,1389.00
1260,989.58,2632.95,12.33,1981.00,1391.00
1269,990.89,2646.33,15.95,2076.00,1475.00
1278,992.20,2659.65,0.00,2000.00,1387.00
1287,993.51,2672.91,0.00,2054.00,1378.00
1296,994.81,2686.10,761.08,2485.00,1416.00
1305,996.12,2699.24,692.50,2536.00,1404.00
1314,997.41,2712.32,574.98,2581.00,1437.00
1323,998.71,2725.33,426.54,2519.00,1364.00
1332,1000.01,2738.29,366.85,2631.00,1450.00
1341,1001.30,2751.18,652.65,2792.00,1518.00
1350,1002.59,2764.02,0.00,2543.00,1488.00
1359,1003.87,2776.79,1235.05,3046.00,1408.00
1368,1005.15,2789.51,2553.96,3479.00,1406.00
1377,1006.43,2802.17,3990.24,3861.00,1385.00
1386,1007.71,2814.77,6188.90,4421.00,1315.00
1395,1008.99,2827.30,8731.52,5097.00,1342.00
1404,1010.26,2839.78,9484.77,5306.00,1420.00
1413,1011.53,2852.21,10081.73,5311.00,1364.00
1422,1012.80,2864.57,11249.99,5672.00,1492.00
1431,1014.06,2876.87,15661.99,6543.00,1340.00
1440,1015.32,2889.12,18996.28,7221.00,1431.00
1449,1016.58,2901.31,15280.62,6202.00,1402.00
1458,1017.83,2913.44,12504.90,5199.00,1315.00
1467,1019.09,2925.51,7704.58,4104.00,1395.00
1476,1020.33,2937.53,7938.92,4068.00,1459.00
1485,1021.58,2949.49,7266.54,3787.00,1416.00
1494,1022.82,2961.39,4854.30,3177.00,1383.00
1503,1024.07,2973.23,2308.76,2716.00,1497.00
1512,1025.30,2985.02,483.77,2147.00,1332.00
1521,1026.54,2996.75,2.45,2006.00,1406.00
1530,1027.77,3008.43,33.67,1896.00,1404.00
1539,1029.00,3020.05,0.00,1723.00,1338.00
1548,1030.22,3031.61,120.87,1706.00,1342.00
1557,1031.45,3043.12,49.85,1733.00,1418.00
1566,1032.67,3054.57,130.66,1640.00,1338.00
1575,1033.88,3065.97,44.43,1518.00,1241.00
1584,1035.10,3077.31,28.38,1695.00,1431.00
1593,1036.31,3088.60,0.00,1663.00,1414.00
1602,1037.52,3099.83,188.01,1619.00,1347.00
1611,1038.72,3111.00,142.86,1718.00,1452.00
1620,1039.92,3122.13,175.71,1695.00,1427.00
1629,1041.12,3133.20,346.29,1738.00,1446.00
1638,1042.32,3144.21,33.32,1634.00,1363.00
1647,1043.51,3155.17,0.00,1689.00,1410.00
1656,1044.70,3166.08,656.04,1849.00,1495.00
1665,1045.88,3176.93,0.00,1794.00,1499.00
1674,1047.07,3187.73,214.88,1702.00,1359.00
1683,1048.24,3198.48,481.63,1845.00,1475.00
1692,1049.42,3209.17,1065.95,1858.00,1448.00
1701,1050.59,3219.81,1382.66,1833.00,1395.00
1710,1051.76,3230.40,1169.96,1906.00,1488.00
1719,1052.93,3240.94,1414.90,1776.00,1334.00
1728,1054.10,3251.42,2404.98,1932.00,1440.00
1737,1055.26,3261.86,2702.57,1981.00,1476.00
1746,1056.41,3272.24,1747.45,1957.00,1514.00
1755,1057.57,3282.57,2463.84,1999.00,1533.00
1764,1058.72,3292.85,1818.36,1902.00,1480.00
1773,1059.87,3303.07,1829.74,1843.00,1431.00
1782,1061.01,3313.25,1882.08,1839.00,1431.00
1791,1062.15,3323.38,1291.89,1757.00,1393.00
1800,1063.29,3333.45,1166.97,1738.00,1389.00
1809,1064.42,3343.48,1025.79,1778.00,1444.00
1818,1065.55,3353.45,1104.30,1738.00,1414.00
1827,1066.68,3363.38,458.23,1733.00,1450.00
1836,1067.81,3373.25,1240.00,1632.00,1323.00
1845,1068.93,3383.08,1364.80,1615.00,1327.00
1854,1070.05,3392.85,546.45,1786.00,1543.00
1863,1071.16,3402.58,291.27,1623.00,1404.00
1872,1072.27,3412.26,2407.48,1678.00,1404.00
1881,1073.38,3421.89,1249.90,1509.00,1290.00
1890,1074.49,3431.47,868.66,1583.00,1382.00
1899,1075.59,3441.00,2033.04,1588.00,1368.00
1908,1076.69,3450.49,12.81,1613.00,1465.00
1917,1077.78,3459.93,2218.28,1530.00,1330.00
1926,1078.87,3469.32,1775.79,1611.00,1435.00
1935,1079.96,3478.66,2054.41,1528.00,1363.00
1944,1081.05,3487.95,1750.11,1592.00,1435.00
1953,1082.13,3497.20,917.71,1560.00,1433.00
1962,1083.21,3506.40,3407.87,1492.00,1332.00
1971,1084.28,3515.56,570.39,1602.00,1490.00
1980,1085.36,3524.67,1074.55,1520.00,1414.00
1989,1086.42,3533.73,2776.88,1459.00,1338.00
1998,1087.49,3542.74,1283.15,1497.00,1401.00
2007,1088.55,3551.71,570.20,1416.00,1338.00
2016,1089.61,3560.64,2397.62,1435.00,1334.00
2025,1090.67,3569.52,568.88,1440.00,1363.00
2034,1091.72,3578.35,2003.19,1328.00,1241.00
2043,1092.77,3587.14,5.61,1317.00,1260.00
2047,1093.23,3591.03,11.84,1270.00,1207.00

File: potassium dihydrogen phosphate.csv
ENLIGHTEN Version,4.1.22
Measurement ID,20250220-203938-452881-WP-01977
Serial Number,WP-01977
Model,WP-785X-F13-R-ILC
Detector,S16011-1106
Label,potassium dihydrogen phosphate
Declared Match,
Declared Score,0
Scan Averaging,1
Boxcar,0
Technique,Raman
Baseline Correction Algo,AirPLS
ROI Pixel Start,47
ROI Pixel End,2047
ROI Start Line,0
ROI Stop Line,63
CCD C4,1.38617e-12
Slit Width,25
Cropped,True
Interpolated,False
Wavenumber Correction,-0.100481
Raman Intensity Corrected,True
Deconvolved,True
Region,
High Gain Mode,False
Laser Power mW,
Electrical Dark Correction,False
Battery %,
Device ID,<DeviceID USB:0x24aa:0x1000:0:1>
FW Version,10.0.0.10
FPGA Version,035-001
BLE Version,
Prefix,enlighten
Suffix,
Preset,
Auto-Raman,True
Session Count,0
Plugin Name,
Integration Time,1617
Timestamp,2025-02-20 20:39:38.4529
Note,
Temperature,0
CCD C0,793.274
CCD C1,0.153259
CCD C2,1.40788e-05
CCD C3,-1.132e-08
CCD Offset,0
CCD Gain,1.9
CCD Offset Odd,0
CCD Gain Odd,1.9
Laser Wavelength,785.032
Laser Enable,False
Laser Power %,0
Laser Temperature,0
Pixel Count,2048

Pixel,Wavelength,Wavenumber,Processed,Raw,Dark
0,793.27,132.25,NA,1258.00,1207.00
9,794.65,154.15,NA,1298.00,1262.00
18,796.04,176.01,NA,1380.00,1319.00
27,797.42,197.83,NA,1385.00,1340.00
36,798.81,219.60,NA,1385.00,1247.00
45,800.20,241.33,NA,3512.00,1292.00
54,801.59,263.02,0.00,4193.00,1397.00
63,802.98,284.66,34.80,4569.00,1355.00
72,804.38,306.26,259.01,5055.00,1344.00
81,805.77,327.82,943.04,6099.00,1294.00
90,807.17,349.32,2697.78,8713.00,1334.00
99,808.57,370.78,2322.22,8465.00,1344.00
108,809.98,392.19,4027.51,10376.00,1313.00
117,811.38,413.56,532.41,6200.00,1330.00
126,812.79,434.87,768.50,6456.00,1289.00
135,814.19,456.14,1339.46,7164.00,1256.00
144,815.60,477.36,1938.99,7939.00,1345.00
153,817.01,498.52,897.44,6280.00,1332.00
162,818.42,519.64,1231.96,6682.00,1363.00
171,819.84,540.70,1535.71,6876.00,1249.00
180,821.25,561.71,1060.00,5902.00,1254.00
189,822.67,582.67,556.64,4939.00,1268.00
198,824.09,603.57,55.58,3933.00,1252.00
207,825.50,624.43,0.00,3584.00,1332.00
216,826.92,645.22,16.31,3407.00,1279.00
225,828.34,665.97,0.00,3267.00,1241.00
234,829.77,686.66,44.51,3597.00,1442.00
243,831.19,707.29,0.00,3493.00,1368.00
252,832.61,727.87,0.00,3608.00,1349.00
261,834.04,748.39,0.00,3688.00,1260.00
270,835.47,768.85,21.28,3986.00,1251.00
279,836.89,789.26,0.00,4320.00,1277.00
288,838.32,809.61,0.00,4658.00,1268.00
297,839.75,829.90,0.00,5209.00,1363.00
306,841.18,850.14,0.00,5740.00,1311.00
315,842.61,870.31,537.39,7358.00,1304.00
324,844.04,890.43,3010.39,12138.00,1275.00
333,845.47,910.49,18901.04,38166.00,1275.00
342,846.90,930.49,6712.51,19747.00,1327.00
351,848.33,950.43,1032.75,9520.00,1283.00
360,849.77,970.31,71.89,7918.00,1289.00
369,851.20,990.12,0.00,7348.00,1313.00
378,852.63,1009.88,38.69,7096.00,1359.00
387,854.07,1029.58,35.70,6561.00,1273.00
396,855.50,1049.21,28.66,6150.00,1290.00
405,856.94,1068.79,0.00,5702.00,1290.00
414,858.37,1088.30,2.07,5338.00,1230.00
423,859.81,1107.75,27.58,5201.00,1334.00
432,861.25,1127.14,0.00,4869.00,1325.00
441,862.68,1146.46,0.00,4622.00,1243.00
450,864.12,1165.73,0.00,4457.00,1271.00
459,865.55,1184.93,0.00,4267.00,1186.00
468,866.99,1204.06,0.00,4463.00,1283.00
477,868.43,1223.14,0.48,4641.00,1220.00
486,869.86,1242.15,196.14,5173.00,1264.00
495,871.30,1261.10,370.61,5560.00,1239.00
504,872.73,1279.98,764.24,6331.00,1271.00
513,874.17,1298.80,1106.60,6948.00,1237.00
522,875.60,1317.55,1397.57,7555.00,1279.00
531,877.04,1336.24,1377.63,7569.00,1215.00
540,878.47,1354.87,1425.83,7724.00,1233.00
549,879.91,1373.43,1183.12,7508.00,1262.00
558,881.34,1391.93,1039.21,7284.00,1178.00
567,882.78,1410.36,952.48,7231.00,1216.00
576,884.21,1428.73,795.42,7183.00,1308.00
585,885.64,1447.03,779.75,7140.00,1211.00
594,887.08,1465.26,811.55,7348.00,1285.00
603,888.51,1483.43,847.16,7445.00,1254.00
612,889.94,1501.54,951.58,7610.00,1196.00
621,891.37,1519.58,890.78,7534.00,1129.00
630,892.80,1537.56,719.22,7430.00,1211.00
639,894.23,1555.46,575.45,7250.00,1211.00
648,895.66,1573.31,452.51,7176.00,1228.00
657,897.09,1591.09,422.84,7179.00,1218.00
666,898.52,1608.80,471.08,7136.00,1203.00
675,899.95,1626.44,551.31,7115.00,1211.00
684,901.37,1644.02,618.44,7122.00,1251.00
693,902.80,1661.54,749.67,7210.00,1309.00
702,904.22,1678.99,674.09,6851.00,1173.00
711,905.64,1696.37,696.03,6838.00,1271.00
720,907.07,1713.68,735.58,6646.00,1194.00
729,908.49,1730.93,639.43,6450.00,1235.00
738,909.91,1748.12,645.39,6302.00,1230.00
747,911.33,1765.23,570.01,6065.00,1213.00
756,912.75,1782.29,646.33,5997.00,1196.00
765,914.16,1799.27,652.81,5904.00,1228.00
774,915.58,1816.19,612.39,5670.00,1171.00
783,916.99,1833.04,692.12,5712.00,1254.00
792,918.41,1849.83,645.49,5528.00,1245.00
801,919.82,1866.55,602.08,5328.00,1235.00
810,921.23,1883.20,653.34,5268.00,1251.00
819,922.64,1899.79,467.36,4899.00,1190.00
828,924.05,1916.31,446.83,4766.00,1215.00
837,925.46,1932.77,463.75,4653.00,1218.00
846,926.86,1949.16,369.18,4442.00,1228.00
855,928.27,1965.48,272.37,4172.00,1173.00
864,929.67,1981.74,252.31,4098.00,1241.00
873,931.07,1997.93,160.40,3912.00,1258.00
882,932.47,2014.06,27.16,3626.00,1216.00
891,933.87,2030.12,77.14,3567.00,1239.00
900,935.27,2046.11,0.00,3428.00,1317.00
909,936.66,2062.04,40.42,3326.00,1285.00
918,938.06,2077.91,0.00,3113.00,1226.00
927,939.45,2093.70,0.00,3026.00,1216.00
936,940.84,2109.44,27.66,3003.00,1216.00
945,942.23,2125.10,10.21,2963.00,1245.00
954,943.62,2140.70,6.13,2923.00,1258.00
963,945.00,2156.24,48.91,2855.00,1188.00
972,946.39,2171.71,38.21,2851.00,1228.00
981,947.77,2187.12,33.45,2773.00,1184.00
990,949.15,2202.46,56.81,2845.00,1241.00
999,950.53,2217.73,39.14,2798.00,1211.00
1008,951.90,2232.94,22.77,2745.00,1180.00
1017,953.28,2248.09,148.61,2893.00,1252.00
1026,954.65,2263.17,155.79,2836.00,1194.00
1035,956.02,2278.19,85.30,2809.00,1224.00
1044,957.39,2293.14,93.80,2805.00,1245.00
1053,958.75,2308.03,263.22,2836.00,1192.00
1062,960.12,2322.85,221.46,2809.00,1220.00
1071,961.48,2337.61,279.02,2819.00,1213.00
1080,962.84,2352.31,298.61,2813.00,1230.00
1089,964.20,2366.94,283.46,2798.00,1249.00
1098,965.56,2381.51,302.81,2767.00,1239.00
1107,966.91,2396.01,382.70,2788.00,1249.00
1116,968.26,2410.45,321.57,2686.00,1216.00
1125,969.61,2424.83,223.14,2597.00,1216.00
1134,970.96,2439.14,233.03,2589.00,1235.00
1143,972.30,2453.39,288.87,2551.00,1209.00
1152,973.65,2467.58,198.55,2492.00,1233.00
1161,974.99,2481.70,278.43,2479.00,1209.00
1170,976.33,2495.76,161.08,2430.00,1245.00
1179,977.66,2509.76,29.35,2316.00,1241.00
1188,979.00,2523.70,124.75,2325.00,1245.00
1197,980.33,2537.57,25.20,2202.00,1203.00
1206,981.66,2551.38,40.06,2255.00,1285.00
1215,982.98,2565.13,9.81,2130.00,1205.00
1224,984.31,2578.82,77.76,2137.00,1197.00
1233,985.63,2592.44,34.46,2109.00,1207.00
1242,986.95,2606.01,118.09,2234.00,1309.00
1251,988.27,2619.51,276.60,2259.00,1292.00
1260,989.58,2632.95,238.97,2217.00,1281.00
1269,990.89,2646.33,339.69,2281.00,1338.00
1278,992.20,2659.65,279.45,2185.00,1292.00
1287,993.51,2672.91,243.05,2141.00,1279.00
1296,994.81,2686.10,385.60,2164.00,1273.00
1305,996.12,2699.24,359.70,2143.00,1285.00
1314,997.41,2712.32,320.18,2128.00,1319.00
1323,998.71,2725.33,388.00,2076.00,1268.00
1332,1000.01,2738.29,331.01,2078.00,1313.00
1341,1001.30,2751.18,295.66,2131.00,1408.00
1350,1002.59,2764.02,304.37,2040.00,1330.00
1359,1003.87,2776.79,216.56,1930.00,1287.00
1368,1005.15,2789.51,172.00,1902.00,1298.00
1377,1006.43,2802.17,124.45,1852.00,1271.00
1386,1007.71,2814.77,149.93,1775.00,1218.00
1395,1008.99,2827.30,235.24,1818.00,1252.00
1404,1010.26,2839.78,133.60,1822.00,1309.00
1413,1011.53,2852.21,217.10,1767.00,1252.00
1422,1012.80,2864.57,31.15,1822.00,1374.00
1431,1014.06,2876.87,86.34,1674.00,1222.00
1440,1015.32,2889.12,182.47,1746.00,1296.00
1449,1016.58,2901.31,37.10,1674.00,1279.00
1458,1017.83,2913.44,148.59,1638.00,1228.00
1467,1019.09,2925.51,65.83,1663.00,1292.00
1476,1020.33,2937.53,62.49,1689.00,1338.00
1485,1021.58,2949.49,93.84,1649.00,1309.00
1494,1022.82,2961.39,156.35,1607.00,1266.00
1503,1024.07,2973.23,27.87,1674.00,1374.00
1512,1025.30,2985.02,70.66,1532.00,1235.00
1521,1026.54,2996.75,149.79,1609.00,1309.00
1530,1027.77,3008.43,272.15,1598.00,1289.00
1539,1029.00,3020.05,278.52,1520.00,1222.00
1548,1030.22,3031.61,344.25,1533.00,1243.00
1557,1031.45,3043.12,20.45,1556.00,1319.00
1566,1032.67,3054.57,35.99,1495.00,1262.00
1575,1033.88,3065.97,160.07,1421.00,1171.00
1584,1035.10,3077.31,76.82,1541.00,1311.00
1593,1036.31,3088.60,72.37,1537.00,1313.00
1602,1037.52,3099.83,79.69,1505.00,1281.00
1611,1038.72,3111.00,421.90,1588.00,1340.00
1620,1039.92,3122.13,479.74,1571.00,1315.00
1629,1041.12,3133.20,74.49,1579.00,1351.00
1638,1042.32,3144.21,265.54,1533.00,1277.00
1647,1043.51,3155.17,292.67,1581.00,1309.00
1656,1044.70,3166.08,248.15,1664.00,1389.00
1665,1045.88,3176.93,494.13,1661.00,1353.00
1674,1047.07,3187.73,463.18,1564.00,1258.00
1683,1048.24,3198.48,920.88,1697.00,1345.00
1692,1049.42,3209.17,973.09,1699.00,1353.00
1701,1050.59,3219.81,1580.55,1661.00,1283.00
1710,1051.76,3230.40,1754.23,1737.00,1353.00
1719,1052.93,3240.94,1918.92,1636.00,1251.00
1728,1054.10,3251.42,2050.86,1723.00,1340.00
1737,1055.26,3261.86,2323.11,1752.00,1361.00
1746,1056.41,3272.24,1984.09,1752.00,1395.00
1755,1057.57,3282.57,2672.31,1790.00,1401.00
1764,1058.72,3292.85,2432.57,1699.00,1338.00
1773,1059.87,3303.07,2443.06,1653.00,1315.00
1782,1061.01,3313.25,1745.56,1617.00,1319.00
1791,1062.15,3323.38,2945.13,1611.00,1262.00
1800,1063.29,3333.45,2426.12,1596.00,1289.00
1809,1064.42,3343.48,2506.66,1619.00,1319.00
1818,1065.55,3353.45,1428.44,1558.00,1319.00
1827,1066.68,3363.38,2181.30,1581.00,1317.00
1836,1067.81,3373.25,1564.88,1465.00,1237.00
1845,1068.93,3383.08,1707.02,1456.00,1222.00
1854,1070.05,3392.85,169.18,1592.00,1431.00
1863,1071.16,3402.58,1357.34,1492.00,1300.00
1872,1072.27,3412.26,1984.50,1486.00,1287.00
1881,1073.38,3421.89,1969.44,1387.00,1192.00
1890,1074.49,3431.47,2017.70,1446.00,1260.00
1899,1075.59,3441.00,1946.43,1446.00,1275.00
1908,1076.69,3450.49,1745.28,1497.00,1334.00
1917,1077.78,3459.93,1776.28,1397.00,1249.00
1926,1078.87,3469.32,755.90,1450.00,1334.00
1935,1079.96,3478.66,1392.76,1391.00,1266.00
1944,1081.05,3487.95,1155.94,1437.00,1325.00
1953,1082.13,3497.20,1204.91,1431.00,1327.00
1962,1083.21,3506.40,1327.49,1363.00,1252.00
1971,1084.28,3515.56,2314.64,1486.00,1372.00
1980,1085.36,3524.67,1085.23,1397.00,1309.00
1989,1086.42,3533.73,938.78,1332.00,1254.00
1998,1087.49,3542.74,1797.27,1370.00,1281.00
2007,1088.55,3551.71,851.93,1313.00,1239.00
2016,1089.61,3560.64,2360.40,1328.00,1247.00
2025,1090.67,3569.52,2285.95,1349.00,1264.00
2034,1091.72,3578.35,1925.28,1241.00,1161.00
2043,1092.77,3587.14,757.11,1243.00,1186.00
2047,1093.23,3591.03,28.59,1188.00,1140.00