Folder: ENLIGHTEN/plugins/Raman/MatchingLibrary/785X (part 2)

File: acetaminophen.csv
ENLIGHTEN Version,4.1.22
Measurement ID,20250220-201244-278517-WP-01977
Serial Number,WP-01977
Model,WP-785X-F13-R-ILC
Detector,S16011-1106
Label,acetaminophen
Declared Match,
Declared Score,0
Scan Averaging,4
Boxcar,0
Technique,Raman
Baseline Correction Algo,AirPLS
ROI Pixel Start,47
ROI Pixel End,2047
ROI Start Line,0
ROI Stop Line,63
CCD C4,1.38617e-12
Slit Width,25
Cropped,True
Interpolated,False
Wavenumber Correction,-0.100481
Raman Intensity Corrected,True
Deconvolved,True
Region,
High Gain Mode,False
Laser Power mW,
Electrical Dark Correction,False
Battery %,
Device ID,<DeviceID USB:0x24aa:0x1000:0:1>
FW Version,10.0.0.10
FPGA Version,035-001
BLE Version,
Prefix,enlighten
Suffix,
Preset,
Auto-Raman,True
Session Count,0
Plugin Name,
Integration Time,287
Timestamp,2025-02-20 20:12:44.2785
Note,
Temperature,0
CCD C0,793.274
CCD C1,0.153259
CCD C2,1.40788e-05
CCD C3,-1.132e-08
CCD Offset,0
CCD Gain,1.9
CCD Offset Odd,0
CCD Gain Odd,1.9
Laser Wavelength,785.032
Laser Enable,False
Laser Power %,0
Laser Temperature,0
Pixel Count,2048

Pixel,Wavelength,Wavenumber,Processed,Raw,Dark
0,793.27,132.25,NA,982.25,906.00
9,794.65,154.15,NA,995.00,914.00
18,796.04,176.01,NA,1009.25,924.50
27,797.42,197.83,NA,1038.75,926.00
36,798.81,219.60,NA,1073.75,918.50
45,800.20,241.33,NA,6103.00,920.50
54,801.59,263.02,0.23,6111.00,941.25
63,802.98,284.66,0.00,6053.75,942.00
72,804.38,306.26,209.63,6598.25,935.25
81,805.77,327.82,4149.62,11546.25,925.00
90,807.17,349.32,256.32,7152.25,931.25
99,808.57,370.78,211.10,7080.00,933.75
108,809.98,392.19,7252.02,15332.50,928.00
117,811.38,413.56,932.97,8049.75,926.75
126,812.79,434.87,93.73,7101.00,920.50
135,814.19,456.14,992.65,8622.00,913.50
144,815.60,477.36,752.13,8326.50,929.25
153,817.01,498.52,965.12,8722.75,935.50
162,818.42,519.64,171.05,7263.75,928.00
171,819.84,540.70,0.00,6939.50,918.25
180,821.25,561.71,0.00,6996.25,917.50
189,822.67,582.67,0.98,7202.00,915.75
198,824.09,603.57,1551.54,9405.50,912.00
207,825.50,624.43,1962.28,10363.50,933.00
216,826.92,645.22,2769.60,12989.75,920.50
225,828.34,665.97,634.60,8969.25,915.00
234,829.77,686.66,1071.32,9405.50,985.75
243,831.19,707.29,2114.33,11172.25,935.75
252,832.61,727.87,771.42,9092.00,935.25
261,834.04,748.39,299.45,8360.50,919.75
270,835.47,768.85,0.00,7834.25,918.00
279,836.89,789.26,1995.72,12533.00,920.75
288,838.32,809.61,1525.83,11368.00,922.00
297,839.75,829.90,2405.24,11978.00,933.00
306,841.18,850.14,3985.24,16983.00,927.00
315,842.61,870.31,1448.96,11608.00,930.00
324,844.04,890.43,0.00,7683.75,915.50
333,845.47,910.49,37.96,7754.75,915.00
342,846.90,930.49,0.00,7730.25,923.50
351,848.33,950.43,215.54,8104.75,922.00
360,849.77,970.31,3086.41,11949.75,921.50
369,851.20,990.12,6.97,8064.00,919.50
378,852.63,1009.88,790.51,9457.50,932.25
387,854.07,1029.58,351.43,8884.75,918.75
396,855.50,1049.21,121.35,8487.50,919.75
405,856.94,1068.79,0.00,8333.00,929.50
414,858.37,1088.30,112.60,8829.00,907.50
423,859.81,1107.75,2069.93,11862.00,928.50
432,861.25,1127.14,363.51,9628.75,928.50
441,862.68,1146.46,0.00,9340.50,915.00
450,864.12,1165.73,6727.47,20014.50,926.00
459,865.55,1184.93,0.00,9964.00,909.00
468,866.99,1204.06,0.00,10594.00,918.75
477,868.43,1223.14,2984.34,16652.75,913.25
486,869.86,1242.15,8376.31,26377.50,923.00
495,871.30,1261.10,2422.10,17128.25,918.25
504,872.73,1279.98,7278.53,23335.25,923.25
513,874.17,1298.80,99.91,14990.00,919.75
522,875.60,1317.55,7399.75,28584.75,922.00
531,877.04,1336.24,5330.79,25039.50,909.00
540,878.47,1354.87,2828.80,20100.75,921.00
549,879.91,1373.43,10274.24,30115.50,918.50
558,881.34,1391.93,1731.45,18458.00,902.50
567,882.78,1410.36,643.52,16817.00,909.75
576,884.21,1428.73,945.99,17120.75,919.25
585,885.64,1447.03,1751.52,17900.75,906.00
594,887.08,1465.26,158.49,15491.50,923.00
603,888.51,1483.43,0.00,14804.75,920.25
612,889.94,1501.54,320.30,15649.75,903.00
621,891.37,1519.58,888.04,16330.25,901.75
630,892.80,1537.56,0.10,15058.25,907.50
639,894.23,1555.46,4263.66,21506.75,911.50
648,895.66,1573.31,2231.78,18887.50,910.00
657,897.09,1591.09,666.65,16297.75,912.00
666,898.52,1608.80,16568.21,36366.75,911.75
675,899.95,1626.44,5621.55,23445.25,913.00
684,901.37,1644.02,11121.61,28829.25,914.75
693,902.80,1661.54,5091.00,20721.50,927.50
702,904.22,1678.99,109.67,12717.25,904.50
711,905.64,1696.37,1.49,11803.75,916.75
720,907.07,1713.68,0.00,11213.25,910.50
729,908.49,1730.93,0.00,10678.00,914.50
738,909.91,1748.12,34.34,10420.75,910.00
747,911.33,1765.23,3.63,10063.25,912.50
756,912.75,1782.29,0.57,9738.25,909.00
765,914.16,1799.27,122.69,9594.25,911.75
774,915.58,1816.19,65.38,9266.00,903.25
783,916.99,1833.04,259.76,9212.50,914.00
792,918.41,1849.83,368.64,9072.50,916.25
801,919.82,1866.55,425.40,8866.00,916.50
810,921.23,1883.20,522.63,8698.75,920.25
819,922.64,1899.79,519.80,8405.25,901.25
828,924.05,1916.31,448.50,8072.00,912.25
837,925.46,1932.77,514.95,7872.25,915.00
846,926.86,1949.16,389.75,7470.50,912.50
855,928.27,1965.48,365.26,7181.75,909.50
864,929.67,1981.74,294.33,6842.00,912.50
873,931.07,1997.93,116.08,6415.25,912.00
882,932.47,2014.06,141.58,6198.00,912.75
891,933.87,2030.12,130.97,5935.50,911.50
900,935.27,2046.11,0.00,5584.50,927.00
909,936.66,2062.04,24.96,5384.25,924.75
918,938.06,2077.91,0.00,5119.75,909.25
927,939.45,2093.70,4.97,4933.75,914.25
936,940.84,2109.44,1.97,4740.25,908.75
945,942.23,2125.10,0.00,4561.00,916.50
954,943.62,2140.70,0.00,4399.25,915.50
963,945.00,2156.24,28.94,4303.00,906.50
972,946.39,2171.71,0.00,4173.50,911.50
981,947.77,2187.12,14.72,4080.25,904.75
990,949.15,2202.46,3.05,3998.25,916.50
999,950.53,2217.73,20.30,3918.50,907.00
1008,951.90,2232.94,20.87,3827.50,902.75
1017,953.28,2248.09,47.57,3782.75,923.50
1026,954.65,2263.17,11.21,3656.50,911.50
1035,956.02,2278.19,0.00,3566.50,912.25
1044,957.39,2293.14,34.25,3525.50,913.25
1053,958.75,2308.03,19.29,3442.75,913.00
1062,960.12,2322.85,18.33,3364.50,906.50
1071,961.48,2337.61,49.11,3320.00,906.50
1080,962.84,2352.31,43.71,3262.25,910.75
1089,964.20,2366.94,27.66,3188.00,915.75
1098,965.56,2381.51,19.33,3123.75,917.25
1107,966.91,2396.01,33.22,3078.25,913.25
1116,968.26,2410.45,49.05,3022.50,909.75
1125,969.61,2424.83,4.11,2940.25,907.00
1134,970.96,2439.14,91.94,2944.00,904.00
1143,972.30,2453.39,209.04,2979.75,911.25
1152,973.65,2467.58,251.09,2962.50,911.50
1161,974.99,2481.70,336.79,2958.25,909.50
1170,976.33,2495.76,218.75,2847.50,910.75
1179,977.66,2509.76,63.72,2710.00,916.00
1188,979.00,2523.70,40.46,2656.25,916.00
1197,980.33,2537.57,66.22,2609.50,903.50
1206,981.66,2551.38,144.58,2608.25,920.50
1215,982.98,2565.13,5.67,2484.00,909.00
1224,984.31,2578.82,60.47,2469.75,909.00
1233,985.63,2592.44,95.73,2440.75,908.00
1242,986.95,2606.01,71.97,2407.00,928.50
1251,988.27,2619.51,24.50,2332.25,917.50
1260,989.58,2632.95,51.30,2305.50,918.00
1269,990.89,2646.33,69.47,2277.00,929.50
1278,992.20,2659.65,34.02,2222.00,922.00
1287,993.51,2672.91,51.03,2184.25,918.50
1296,994.81,2686.10,0.00,2135.25,926.00
1305,996.12,2699.24,51.90,2122.25,923.00
1314,997.41,2712.32,83.22,2117.25,934.25
1323,998.71,2725.33,301.19,2138.00,917.00
1332,1000.01,2738.29,109.58,2047.00,926.50
1341,1001.30,2751.18,36.48,2003.25,943.50
1350,1002.59,2764.02,89.57,1979.00,932.75
1359,1003.87,2776.79,51.05,1936.75,923.75
1368,1005.15,2789.51,59.05,1913.50,923.50
1377,1006.43,2802.17,0.00,1860.75,920.50
1386,1007.71,2814.77,0.00,1845.25,911.25
1395,1008.99,2827.30,0.00,1873.00,915.25
1404,1010.26,2839.78,148.26,1960.50,925.75
1413,1011.53,2852.21,17.31,1959.25,915.50
1422,1012.80,2864.57,0.00,1992.75,934.00
1431,1014.06,2876.87,204.97,2102.75,907.00
1440,1015.32,2889.12,533.55,2219.75,922.50
1449,1016.58,2901.31,1053.42,2354.00,919.75
1458,1017.83,2913.44,2195.57,2652.25,916.00
1467,1019.09,2925.51,6697.67,3637.00,919.25
1476,1020.33,2937.53,5920.50,3451.00,933.00
1485,1021.58,2949.49,1282.12,2408.00,932.00
1494,1022.82,2961.39,68.47,2115.50,921.75
1503,1024.07,2973.23,0.00,2066.50,938.25
1512,1025.30,2985.02,0.00,2010.75,910.25
1521,1026.54,2996.75,5.28,2008.00,920.25
1530,1027.77,3008.43,706.16,2081.50,919.75
1539,1029.00,3020.05,0.15,1960.75,911.00
1548,1030.22,3031.61,264.48,1999.25,913.25
1557,1031.45,3043.12,2924.09,2401.50,920.50
1566,1032.67,3054.57,6255.12,2865.00,915.25
1575,1033.88,3065.97,8645.21,3081.50,901.25
1584,1035.10,3077.31,6165.56,2680.50,925.75
1593,1036.31,3088.60,1779.35,2085.75,925.50
1602,1037.52,3099.83,3888.55,2238.00,921.25
1611,1038.72,3111.00,1160.65,1928.75,925.75
1620,1039.92,3122.13,118.22,1729.25,928.50
1629,1041.12,3133.20,2.84,1683.75,933.25
1638,1042.32,3144.21,0.00,1647.50,916.75
1647,1043.51,3155.17,151.64,1680.00,928.25
1656,1044.70,3166.08,370.60,1699.25,932.50
1665,1045.88,3176.93,128.23,1682.50,936.50
1674,1047.07,3187.73,108.17,1647.75,915.00
1683,1048.24,3198.48,384.49,1672.75,934.00
1692,1049.42,3209.17,763.41,1680.50,932.50
1701,1050.59,3219.81,1397.41,1704.50,922.50
1710,1051.76,3230.40,1667.63,1716.25,938.25
1719,1052.93,3240.94,2043.94,1694.00,914.00
1728,1054.10,3251.42,2290.42,1704.50,931.50
1737,1055.26,3261.86,2865.67,1718.50,934.75
1746,1056.41,3272.24,2535.87,1679.00,941.00
1755,1057.57,3282.57,2658.76,1658.25,938.75
1764,1058.72,3292.85,2851.25,1631.50,928.00
1773,1059.87,3303.07,2931.14,1614.00,928.25
1782,1061.01,3313.25,2773.04,1580.75,925.50
1791,1062.15,3323.38,3462.40,1582.25,919.50
1800,1063.29,3333.45,2611.34,1526.50,925.00
1809,1064.42,3343.48,2326.95,1484.50,924.50
1818,1065.55,3353.45,1066.56,1410.50,927.50
1827,1066.68,3363.38,1051.79,1394.00,929.00
1836,1067.81,3373.25,273.43,1334.25,917.00
1845,1068.93,3383.08,544.00,1315.75,911.75
1854,1070.05,3392.85,615.67,1323.75,943.00
1863,1071.16,3402.58,466.27,1277.50,925.50
1872,1072.27,3412.26,643.32,1262.25,924.00
1881,1073.38,3421.89,697.86,1226.00,908.00
1890,1074.49,3431.47,725.64,1215.00,916.25
1899,1075.59,3441.00,541.03,1194.00,918.00
1908,1076.69,3450.49,718.61,1188.75,927.50
1917,1077.78,3459.93,451.77,1156.50,918.50
1926,1078.87,3469.32,690.72,1156.75,928.75
1935,1079.96,3478.66,654.64,1132.00,921.50
1944,1081.05,3487.95,344.02,1124.75,935.00
1953,1082.13,3497.20,235.03,1103.00,928.75
1962,1083.21,3506.40,307.31,1081.75,917.25
1971,1084.28,3515.56,393.81,1087.25,934.50
1980,1085.36,3524.67,418.65,1071.50,925.75
1989,1086.42,3533.73,456.00,1052.50,917.00
1998,1087.49,3542.74,1059.57,1054.00,918.75
2007,1088.55,3551.71,546.07,1033.25,913.50
2016,1089.61,3560.64,935.45,1028.25,912.00
2025,1090.67,3569.52,308.61,1020.25,919.00
2034,1091.72,3578.35,143.66,996.00,903.75
2043,1092.77,3587.14,0.00,984.00,903.50
2047,1093.23,3591.03,11.08,975.25,892.00

File: acetone.csv
ENLIGHTEN Version,4.1.22
Measurement ID,20250220-200528-407321-WP-01977
Serial Number,WP-01977
Model,WP-785X-F13-R-ILC
Detector,S16011-1106
Label,acetone
Declared Match,
Declared Score,0
Scan Averaging,5
Boxcar,0
Technique,Raman
Baseline Correction Algo,AirPLS
ROI Pixel Start,47
ROI Pixel End,2047
ROI Start Line,0
ROI Stop Line,63
CCD C4,1.38617e-12
Slit Width,25
Cropped,True
Interpolated,False
Wavenumber Correction,-0.100481
Raman Intensity Corrected,True
Deconvolved,True
Region,
High Gain Mode,False
Laser Power mW,
Electrical Dark Correction,False
Battery %,
Device ID,<DeviceID USB:0x24aa:0x1000:0:1>
FW Version,10.0.0.10
FPGA Version,035-001
BLE Version,
Prefix,enlighten
Suffix,
Preset,
Auto-Raman,True
Session Count,0
Plugin Name,
Integration Time,232
Timestamp,2025-02-20 20:05:28.4073
Note,
Temperature,0
CCD C0,793.274
CCD C1,0.153259
CCD C2,1.40788e-05
CCD C3,-1.132e-08
CCD Offset,0
CCD Gain,1.9
CCD Offset Odd,0
CCD Gain Odd,1.9
Laser Wavelength,785.032
Laser Enable,False
Laser Power %,0
Laser Temperature,0
Pixel Count,2048

Pixel,Wavelength,Wavenumber,Processed,Raw,Dark
0,793.27,132.25,NA,905.40,893.60
9,794.65,154.15,NA,909.40,899.80
18,796.04,176.01,NA,923.80,907.20
27,797.42,197.83,NA,929.40,913.40
36,798.81,219.60,NA,928.00,900.40
45,800.20,241.33,NA,1840.60,912.00
54,801.59,263.02,52.18,1838.60,920.60
63,802.98,284.66,4.78,1733.20,915.00
72,804.38,306.26,6.00,1691.60,911.40
81,805.77,327.82,6.92,1664.80,909.60
90,807.17,349.32,67.86,1737.00,911.00
99,808.57,370.78,266.56,2012.40,915.00
108,809.98,392.19,1296.15,3308.40,903.80
117,811.38,413.56,249.45,1943.40,911.60
126,812.79,434.87,66.09,1637.00,909.60
135,814.19,456.14,103.46,1654.20,898.20
144,815.60,477.36,428.46,2161.40,908.00
153,817.01,498.52,1073.66,3092.00,908.60
162,818.42,519.64,1534.22,3992.80,915.00
171,819.84,540.70,1646.88,4138.60,895.00
180,821.25,561.71,268.00,1765.40,902.00
189,822.67,582.67,64.90,1406.60,904.00
198,824.09,603.57,6.72,1270.60,896.20
207,825.50,624.43,0.00,1224.20,911.60
216,826.92,645.22,0.00,1198.80,904.20
225,828.34,665.97,0.00,1196.80,894.40
234,829.77,686.66,1.36,1286.00,931.00
243,831.19,707.29,0.63,1311.40,914.20
252,832.61,727.87,94.68,1495.60,914.20
261,834.04,748.39,520.79,2210.00,902.40
270,835.47,768.85,2471.39,6078.80,903.00
279,836.89,789.26,28127.79,42736.00,903.20
288,838.32,809.61,1770.70,4635.20,911.00
297,839.75,829.90,549.07,2368.80,917.40
306,841.18,850.14,318.65,1972.60,907.80
315,842.61,870.31,392.59,2097.40,904.00
324,844.04,890.43,517.83,2359.40,902.40
333,845.47,910.49,640.61,2562.80,906.20
342,846.90,930.49,212.29,1860.40,904.80
351,848.33,950.43,40.82,1581.20,904.00
360,849.77,970.31,2.60,1523.60,903.40
369,851.20,990.12,10.65,1540.00,906.60
378,852.63,1009.88,0.00,1511.20,912.40
387,854.07,1029.58,85.07,1666.60,906.20
396,855.50,1049.21,489.81,2435.80,905.80
405,856.94,1068.79,3003.80,6101.40,909.00
414,858.37,1088.30,391.79,2227.60,896.80
423,859.81,1107.75,124.48,1768.40,915.60
432,861.25,1127.14,12.31,1581.60,909.20
441,862.68,1146.46,0.00,1543.20,900.20
450,864.12,1165.73,0.00,1634.40,905.80
459,865.55,1184.93,72.99,1893.00,888.20
468,866.99,1204.06,473.30,2783.20,906.80
477,868.43,1223.14,3084.00,6615.40,900.80
486,869.86,1242.15,373.97,2877.40,907.80
495,871.30,1261.10,20.84,2377.80,902.00
504,872.73,1279.98,24.43,2485.60,906.00
513,874.17,1298.80,179.81,2736.60,899.80
522,875.60,1317.55,392.86,3091.00,902.80
531,877.04,1336.24,656.88,3526.40,895.20
540,878.47,1354.87,1787.46,5176.80,902.00
549,879.91,1373.43,1485.06,4854.60,903.00
558,881.34,1391.93,1963.59,5596.40,891.00
567,882.78,1410.36,3833.89,8579.00,897.00
576,884.21,1428.73,6449.65,12423.40,912.40
585,885.64,1447.03,4398.33,9348.60,901.80
594,887.08,1465.26,2112.76,5799.00,909.60
603,888.51,1483.43,1239.56,4418.00,902.60
612,889.94,1501.54,884.13,3844.00,887.60
621,891.37,1519.58,732.84,3608.80,886.00
630,892.80,1537.56,625.67,3452.00,896.60
639,894.23,1555.46,495.59,3257.20,896.00
648,895.66,1573.31,377.61,3079.00,893.40
657,897.09,1591.09,203.21,2826.20,894.60
666,898.52,1608.80,52.93,2608.20,892.00
675,899.95,1626.44,8.28,2503.40,893.80
684,901.37,1644.02,49.15,2491.80,900.20
693,902.80,1661.54,110.89,2531.60,909.80
702,904.22,1678.99,418.15,2864.00,893.80
711,905.64,1696.37,1387.39,4586.40,907.40
720,907.07,1713.68,7834.47,12279.20,897.40
729,908.49,1730.93,1478.57,4221.80,900.80
738,909.91,1748.12,1000.55,3297.00,896.00
747,911.33,1765.23,270.94,2352.40,899.60
756,912.75,1782.29,112.10,2043.20,888.80
765,914.16,1799.27,65.06,1930.60,899.20
774,915.58,1816.19,8.22,1793.20,888.60
783,916.99,1833.04,3.06,1727.00,898.20
792,918.41,1849.83,11.01,1672.60,897.60
801,919.82,1866.55,0.00,1606.60,895.80
810,921.23,1883.20,16.10,1589.20,900.80
819,922.64,1899.79,30.23,1550.60,891.40
828,924.05,1916.31,45.99,1528.60,896.00
837,925.46,1932.77,75.22,1517.60,894.20
846,926.86,1949.16,72.07,1479.40,901.60
855,928.27,1965.48,59.09,1410.60,888.40
864,929.67,1981.74,32.28,1349.80,898.60
873,931.07,1997.93,7.86,1287.00,901.00
882,932.47,2014.06,16.63,1244.00,891.40
891,933.87,2030.12,7.26,1206.20,898.80
900,935.27,2046.11,0.00,1177.60,913.40
909,936.66,2062.04,0.67,1141.60,903.40
918,938.06,2077.91,3.93,1115.00,895.40
927,939.45,2093.70,1.32,1102.40,899.60
936,940.84,2109.44,16.98,1105.00,897.60
945,942.23,2125.10,51.33,1126.80,896.80
954,943.62,2140.70,14.86,1088.60,900.80
963,945.00,2156.24,0.00,1050.80,892.60
972,946.39,2171.71,1.04,1047.00,893.80
981,947.77,2187.12,13.68,1050.00,890.80
990,949.15,2202.46,11.57,1050.40,897.00
999,950.53,2217.73,27.15,1054.00,891.40
1008,951.90,2232.94,52.05,1067.00,888.80
1017,953.28,2248.09,31.63,1063.20,903.40
1026,954.65,2263.17,47.07,1061.80,896.00
1035,956.02,2278.19,37.13,1051.00,896.20
1044,957.39,2293.14,39.30,1052.00,898.60
1053,958.75,2308.03,54.10,1050.20,891.60
1062,960.12,2322.85,33.26,1036.20,896.40
1071,961.48,2337.61,18.17,1023.00,898.60
1080,962.84,2352.31,8.36,1015.40,901.00
1089,964.20,2366.94,0.81,1007.20,900.80
1098,965.56,2381.51,8.92,1007.80,901.60
1107,966.91,2396.01,12.39,1010.20,901.20
1116,968.26,2410.45,31.21,1018.20,894.40
1125,969.61,2424.83,88.32,1059.00,894.00
1134,970.96,2439.14,213.90,1130.20,895.60
1143,972.30,2453.39,87.82,1062.60,901.40
1152,973.65,2467.58,41.34,1029.40,900.40
1161,974.99,2481.70,41.87,1025.20,897.40
1170,976.33,2495.76,88.37,1052.00,901.00
1179,977.66,2509.76,83.26,1045.80,899.00
1188,979.00,2523.70,41.54,1021.20,899.80
1197,980.33,2537.57,38.58,1007.20,890.80
1206,981.66,2551.38,0.00,999.80,907.80
1215,982.98,2565.13,7.79,997.00,896.20
1224,984.31,2578.82,77.29,1034.60,898.20
1233,985.63,2592.44,38.66,1018.20,894.00
1242,986.95,2606.01,0.00,1010.00,909.80
1251,988.27,2619.51,16.44,1018.40,906.80
1260,989.58,2632.95,0.31,1015.00,901.60
1269,990.89,2646.33,14.35,1050.40,916.20
1278,992.20,2659.65,77.78,1084.40,905.40
1287,993.51,2672.91,281.99,1187.60,903.00
1296,994.81,2686.10,759.18,1418.40,904.60
1305,996.12,2699.24,1557.20,1706.40,909.20
1314,997.41,2712.32,776.84,1432.40,910.00
1323,998.71,2725.33,425.62,1274.60,900.00
1332,1000.01,2738.29,133.12,1182.20,913.20
1341,1001.30,2751.18,0.92,1148.00,922.40
1350,1002.59,2764.02,0.00,1138.40,913.80
1359,1003.87,2776.79,0.00,1172.40,905.80
1368,1005.15,2789.51,0.00,1232.40,908.20
1377,1006.43,2802.17,0.00,1318.20,914.00
1386,1007.71,2814.77,12.76,1498.40,901.80
1395,1008.99,2827.30,1107.78,1878.00,899.40
1404,1010.26,2839.78,3309.83,2518.00,913.40
1413,1011.53,2852.21,4110.99,2724.60,904.20
1422,1012.80,2864.57,3979.04,2693.00,917.20
1431,1014.06,2876.87,4957.03,2913.00,904.80
1440,1015.32,2889.12,7778.17,3639.00,910.60
1449,1016.58,2901.31,15024.48,5526.80,906.80
1458,1017.83,2913.44,39223.27,11637.00,903.80
1467,1019.09,2925.51,75580.28,18072.40,914.40
1476,1020.33,2937.53,26158.64,7991.60,914.00
1485,1021.58,2949.49,13112.06,4537.40,910.00
1494,1022.82,2961.39,11615.71,4007.80,903.80
1503,1024.07,2973.23,10480.57,3676.00,922.80
1512,1025.30,2985.02,7556.40,3043.40,898.60
1521,1026.54,2996.75,8092.62,3089.40,909.40
1530,1027.77,3008.43,9660.07,3225.40,908.20
1539,1029.00,3020.05,5437.31,2474.00,903.20
1548,1030.22,3031.61,2561.44,1939.80,903.00
1557,1031.45,3043.12,951.97,1653.00,908.60
1566,1032.67,3054.57,113.13,1503.00,901.60
1575,1033.88,3065.97,73.20,1406.60,884.40
1584,1035.10,3077.31,77.13,1353.40,906.20
1593,1036.31,3088.60,0.00,1276.80,910.20
1602,1037.52,3099.83,0.00,1228.00,905.00
1611,1038.72,3111.00,31.00,1202.40,913.20
1620,1039.92,3122.13,14.73,1166.80,913.80
1629,1041.12,3133.20,0.00,1136.20,916.60
1638,1042.32,3144.21,21.63,1103.00,903.40
1647,1043.51,3155.17,0.00,1082.60,911.20
1656,1044.70,3166.08,0.00,1077.20,923.80
1665,1045.88,3176.93,0.00,1059.00,916.40
1674,1047.07,3187.73,0.00,1031.00,902.80
1683,1048.24,3198.48,44.39,1044.40,916.40
1692,1049.42,3209.17,87.09,1036.00,913.40
1701,1050.59,3219.81,66.29,1026.80,910.80
1710,1051.76,3230.40,234.54,1034.80,913.40
1719,1052.93,3240.94,151.24,1010.80,899.80
1728,1054.10,3251.42,203.47,1022.80,915.60
1737,1055.26,3261.86,140.06,1013.60,916.20
1746,1056.41,3272.24,289.04,1021.80,919.40
1755,1057.57,3282.57,176.67,1016.40,925.80
1764,1058.72,3292.85,206.95,1005.60,918.40
1773,1059.87,3303.07,223.07,997.00,913.40
1782,1061.01,3313.25,414.38,997.60,909.00
1791,1062.15,3323.38,440.14,987.20,902.60
1800,1063.29,3333.45,325.87,981.40,906.20
1809,1064.42,3343.48,358.43,984.40,911.20
1818,1065.55,3353.45,413.43,979.40,906.60
1827,1066.68,3363.38,349.63,973.80,909.40
1836,1067.81,3373.25,225.89,957.20,900.00
1845,1068.93,3383.08,261.72,954.20,898.60
1854,1070.05,3392.85,730.81,985.00,918.20
1863,1071.16,3402.58,353.95,959.40,906.20
1872,1072.27,3412.26,467.31,962.40,909.00
1881,1073.38,3421.89,735.69,949.40,890.20
1890,1074.49,3431.47,411.35,952.20,905.40
1899,1075.59,3441.00,284.04,948.60,908.20
1908,1076.69,3450.49,319.32,951.40,913.40
1917,1077.78,3459.93,524.41,940.00,896.20
1926,1078.87,3469.32,275.13,946.60,913.20
1935,1079.96,3478.66,834.05,944.20,899.40
1944,1081.05,3487.95,340.72,946.80,915.40
1953,1082.13,3497.20,67.10,938.60,915.40
1962,1083.21,3506.40,428.59,930.80,900.40
1971,1084.28,3515.56,801.25,954.60,920.40
1980,1085.36,3524.67,56.95,932.20,912.20
1989,1086.42,3533.73,393.91,924.80,900.00
1998,1087.49,3542.74,508.14,932.20,906.60
2007,1088.55,3551.71,509.41,923.40,898.20
2016,1089.61,3560.64,546.48,922.00,897.20
2025,1090.67,3569.52,462.52,925.00,903.40
2034,1091.72,3578.35,342.66,908.40,890.00
2043,1092.77,3587.14,70.79,906.60,892.80
2047,1093.23,3591.03,5.64,895.00,881.60