Folder: ENLIGHTEN/plugins/Raman/MatchingLibrary/785X (part 10)

File: lactose.csv
ENLIGHTEN Version,4.1.22
Measurement ID,20250220-201755-020722-WP-01977
Serial Number,WP-01977
Model,WP-785X-F13-R-ILC
Detector,S16011-1106
Label,lactose
Declared Match,
Declared Score,0
Scan Averaging,2
Boxcar,0
Technique,Raman
Baseline Correction Algo,AirPLS
ROI Pixel Start,47
ROI Pixel End,2047
ROI Start Line,0
ROI Stop Line,63
CCD C4,1.38617e-12
Slit Width,25
Cropped,True
Interpolated,False
Wavenumber Correction,-0.100481
Raman Intensity Corrected,True
Deconvolved,True
Region,
High Gain Mode,False
Laser Power mW,
Electrical Dark Correction,False
Battery %,
Device ID,<DeviceID USB:0x24aa:0x1000:0:1>
FW Version,10.0.0.10
FPGA Version,035-001
BLE Version,
Prefix,enlighten
Suffix,
Preset,
Auto-Raman,True
Session Count,0
Plugin Name,
Integration Time,581
Timestamp,2025-02-20 20:17:55.0207
Note,
Temperature,0
CCD C0,793.274
CCD C1,0.153259
CCD C2,1.40788e-05
CCD C3,-1.132e-08
CCD Offset,0
CCD Gain,1.9
CCD Offset Odd,0
CCD Gain Odd,1.9
Laser Wavelength,785.032
Laser Enable,False
Laser Power %,0
Laser Temperature,0
Pixel Count,2048

Pixel,Wavelength,Wavenumber,Processed,Raw,Dark
0,793.27,132.25,NA,1069.00,971.50
9,794.65,154.15,NA,1094.00,995.00
18,796.04,176.01,NA,1145.00,1002.50
27,797.42,197.83,NA,1182.50,1023.00
36,798.81,219.60,NA,1214.50,994.00
45,800.20,241.33,NA,7117.50,1003.00
54,801.59,263.02,523.88,9166.00,1042.50
63,802.98,284.66,36.30,8973.00,1029.50
72,804.38,306.26,3.60,9445.00,1022.00
81,805.77,327.82,577.63,10588.00,1011.00
90,807.17,349.32,2422.86,14034.50,1018.00
99,808.57,370.78,2239.18,14110.50,1029.50
108,809.98,392.19,1621.40,13089.00,1009.50
117,811.38,413.56,0.86,10670.50,1026.50
126,812.79,434.87,313.73,11114.00,1003.00
135,814.19,456.14,512.71,11389.00,996.00
144,815.60,477.36,4992.71,17096.50,1014.00
153,817.01,498.52,112.53,10402.00,1027.50
162,818.42,519.64,0.00,9898.50,1027.50
171,819.84,540.70,6.62,9958.00,986.50
180,821.25,561.71,677.79,11078.50,987.00
189,822.67,582.67,7.63,10020.50,999.00
198,824.09,603.57,387.17,10610.00,999.00
207,825.50,624.43,537.61,11014.00,1020.00
216,826.92,645.22,418.05,10750.50,1006.50
225,828.34,665.97,0.03,9986.00,994.50
234,829.77,686.66,107.64,10280.50,1131.00
243,831.19,707.29,266.73,10395.50,1030.50
252,832.61,727.87,26.19,10014.50,1023.50
261,834.04,748.39,0.00,9932.50,999.00
270,835.47,768.85,324.83,10517.00,988.50
279,836.89,789.26,357.16,10580.50,1002.00
288,838.32,809.61,0.00,9792.50,1004.00
297,839.75,829.90,0.00,9998.50,1041.00
306,841.18,850.14,4126.86,15916.50,1010.50
315,842.61,870.31,1329.58,13096.50,1013.00
324,844.04,890.43,99.69,11024.50,990.50
333,845.47,910.49,1003.82,12666.50,1005.00
342,846.90,930.49,0.00,10556.50,1003.50
351,848.33,950.43,1269.48,12526.50,1005.00
360,849.77,970.31,0.00,10670.00,999.00
369,851.20,990.12,0.00,11443.50,1003.00
378,852.63,1009.88,369.44,13344.00,1026.00
387,854.07,1029.58,1056.75,15401.50,1000.00
396,855.50,1049.21,1697.59,17134.50,999.00
405,856.94,1068.79,1.14,14995.00,1007.00
414,858.37,1088.30,8335.07,27562.00,991.50
423,859.81,1107.75,1178.64,18531.50,1028.50
432,861.25,1127.14,2901.18,22048.50,1025.50
441,862.68,1146.46,2778.19,21773.00,994.50
450,864.12,1165.73,214.53,17926.50,1003.00
459,865.55,1184.93,0.00,17742.00,971.50
468,866.99,1204.06,0.00,18949.50,1001.00
477,868.43,1223.14,176.89,20601.50,997.00
486,869.86,1242.15,283.34,22469.50,1006.50
495,871.30,1261.10,4564.65,29509.00,998.00
504,872.73,1279.98,3504.80,29360.00,1005.00
513,874.17,1298.80,4501.18,31720.50,1000.00
522,875.60,1317.55,6384.59,36101.00,1002.00
531,877.04,1336.24,10940.68,43841.00,979.00
540,878.47,1354.87,10135.91,43418.50,986.50
549,879.91,1373.43,8707.21,41825.00,996.00
558,881.34,1391.93,6940.69,39822.00,969.50
567,882.78,1410.36,6131.00,39160.50,976.50
576,884.21,1428.73,3718.09,36397.00,1015.00
585,885.64,1447.03,2804.38,35690.00,983.00
594,887.08,1465.26,2215.31,35555.00,1007.50
603,888.51,1483.43,302.39,33298.00,1004.00
612,889.94,1501.54,157.80,32677.50,978.00
621,891.37,1519.58,247.29,32232.00,957.00
630,892.80,1537.56,362.38,31726.00,985.50
639,894.23,1555.46,63.88,30696.00,977.00
648,895.66,1573.31,256.10,30250.50,979.00
657,897.09,1591.09,113.03,29361.50,982.00
666,898.52,1608.80,346.93,28909.00,983.00
675,899.95,1626.44,621.09,28494.00,980.00
684,901.37,1644.02,471.64,27568.00,986.50
693,902.80,1661.54,728.30,27140.50,1021.00
702,904.22,1678.99,445.88,25939.00,970.00
711,905.64,1696.37,635.71,25391.00,1001.50
720,907.07,1713.68,347.30,24288.00,987.50
729,908.49,1730.93,7.46,23082.50,987.50
738,909.91,1748.12,245.39,22578.50,989.50
747,911.33,1765.23,0.00,21362.50,975.50
756,912.75,1782.29,87.65,20926.00,982.00
765,914.16,1799.27,163.86,20378.50,990.50
774,915.58,1816.19,67.29,19605.50,974.00
783,916.99,1833.04,634.61,19484.00,995.50
792,918.41,1849.83,742.50,18841.50,992.00
801,919.82,1866.55,791.69,18189.50,983.50
810,921.23,1883.20,971.16,17655.00,1002.00
819,922.64,1899.79,937.53,16827.00,968.00
828,924.05,1916.31,867.46,16015.50,988.50
837,925.46,1932.77,933.90,15342.50,978.00
846,926.86,1949.16,540.62,14225.50,997.00
855,928.27,1965.48,418.66,13355.00,970.50
864,929.67,1981.74,312.14,12531.00,984.00
873,931.07,1997.93,0.00,11473.00,1001.00
882,932.47,2014.06,4.68,10800.50,982.00
891,933.87,2030.12,0.00,10090.00,990.50
900,935.27,2046.11,0.00,9445.50,1015.50
909,936.66,2062.04,32.65,9030.50,1004.00
918,938.06,2077.91,0.00,8495.00,975.50
927,939.45,2093.70,0.07,8091.50,983.00
936,940.84,2109.44,59.37,7815.00,979.00
945,942.23,2125.10,11.08,7478.00,992.00
954,943.62,2140.70,9.02,7191.00,990.50
963,945.00,2156.24,25.59,6981.00,978.00
972,946.39,2171.71,6.70,6757.00,969.50
981,947.77,2187.12,0.00,6525.50,970.00
990,949.15,2202.46,4.84,6431.50,986.00
999,950.53,2217.73,18.12,6284.50,971.50
1008,951.90,2232.94,103.14,6203.00,970.50
1017,953.28,2248.09,69.03,6054.00,997.00
1026,954.65,2263.17,125.95,5935.00,977.00
1035,956.02,2278.19,21.07,5734.50,987.50
1044,957.39,2293.14,83.76,5638.00,986.50
1053,958.75,2308.03,67.58,5491.50,985.00
1062,960.12,2322.85,0.00,5285.00,974.50
1071,961.48,2337.61,29.44,5227.00,976.00
1080,962.84,2352.31,4.32,5109.00,988.50
1089,964.20,2366.94,0.00,4976.50,1000.00
1098,965.56,2381.51,113.64,4968.50,981.00
1107,966.91,2396.01,122.38,4913.50,1001.00
1116,968.26,2410.45,22.80,4743.50,979.00
1125,969.61,2424.83,17.33,4639.50,968.50
1134,970.96,2439.14,170.59,4653.50,988.50
1143,972.30,2453.39,105.92,4530.00,980.00
1152,973.65,2467.58,106.36,4427.50,977.00
1161,974.99,2481.70,159.50,4391.50,980.00
1170,976.33,2495.76,103.60,4290.00,988.50
1179,977.66,2509.76,74.85,4198.00,990.50
1188,979.00,2523.70,109.36,4143.50,995.00
1197,980.33,2537.57,66.77,4028.00,972.00
1206,981.66,2551.38,6.89,3954.50,999.00
1215,982.98,2565.13,86.06,3906.50,970.00
1224,984.31,2578.82,100.07,3866.00,977.00
1233,985.63,2592.44,176.72,3827.00,975.50
1242,986.95,2606.01,0.00,3707.00,1001.00
1251,988.27,2619.51,8.73,3671.00,1014.50
1260,989.58,2632.95,193.41,3699.00,996.00
1269,990.89,2646.33,326.03,3719.50,1020.00
1278,992.20,2659.65,324.90,3644.50,1000.00
1287,993.51,2672.91,305.90,3610.50,1009.50
1296,994.81,2686.10,423.37,3565.00,996.00
1305,996.12,2699.24,0.13,3369.00,1013.00
1314,997.41,2712.32,22.10,3354.50,1015.00
1323,998.71,2725.33,150.74,3342.50,986.50
1332,1000.01,2738.29,291.47,3364.50,1018.00
1341,1001.30,2751.18,37.43,3277.00,1043.00
1350,1002.59,2764.02,0.00,3190.50,1020.00
1359,1003.87,2776.79,0.00,3146.50,998.00
1368,1005.15,2789.51,427.25,3303.50,1002.00
1377,1006.43,2802.17,286.18,3281.00,1011.00
1386,1007.71,2814.77,247.43,3222.00,976.00
1395,1008.99,2827.30,0.00,3149.00,988.00
1404,1010.26,2839.78,0.00,3217.50,1011.00
1413,1011.53,2852.21,0.00,3374.00,996.00
1422,1012.80,2864.57,75.48,3950.00,1038.00
1431,1014.06,2876.87,6694.99,5864.00,985.00
1440,1015.32,2889.12,25135.35,9610.00,1023.00
1449,1016.58,2901.31,12867.57,6792.50,1010.00
1458,1017.83,2913.44,10301.19,6009.00,995.00
1467,1019.09,2925.51,7077.85,5231.00,1013.00
1476,1020.33,2937.53,7345.17,4989.50,1031.00
1485,1021.58,2949.49,5657.00,4314.50,1011.50
1494,1022.82,2961.39,0.00,2897.50,996.00
1503,1024.07,2973.23,3508.59,3650.00,1036.00
1512,1025.30,2985.02,6239.10,3739.50,987.00
1521,1026.54,2996.75,167.47,2510.00,999.00
1530,1027.77,3008.43,0.00,2253.00,1013.50
1539,1029.00,3020.05,0.00,2159.00,982.00
1548,1030.22,3031.61,0.00,2133.50,993.00
1557,1031.45,3043.12,0.00,2128.00,1006.50
1566,1032.67,3054.57,120.31,2134.50,990.50
1575,1033.88,3065.97,53.82,2100.50,955.50
1584,1035.10,3077.31,30.47,2150.50,1010.00
1593,1036.31,3088.60,135.09,2175.50,1007.50
1602,1037.52,3099.83,6.28,2166.50,995.00
1611,1038.72,3111.00,84.53,2221.50,1012.00
1620,1039.92,3122.13,24.48,2250.00,1018.00
1629,1041.12,3133.20,131.92,2311.00,1030.50
1638,1042.32,3144.21,0.00,2300.50,996.00
1647,1043.51,3155.17,134.04,2415.50,1008.50
1656,1044.70,3166.08,274.09,2532.00,1027.50
1665,1045.88,3176.93,85.84,2611.50,1030.50
1674,1047.07,3187.73,138.42,2682.00,1001.00
1683,1048.24,3198.48,673.10,2850.00,1036.00
1692,1049.42,3209.17,1465.36,2956.50,1027.50
1701,1050.59,3219.81,2911.04,3042.00,1010.50
1710,1051.76,3230.40,4550.04,3173.50,1029.50
1719,1052.93,3240.94,5893.00,3200.00,988.50
1728,1054.10,3251.42,8299.42,3353.00,1009.50
1737,1055.26,3261.86,9177.43,3400.50,1031.00
1746,1056.41,3272.24,9475.43,3373.00,1032.50
1755,1057.57,3282.57,9628.02,3349.50,1058.50
1764,1058.72,3292.85,8746.00,3224.50,1031.00
1773,1059.87,3303.07,8079.45,3122.50,1016.50
1782,1061.01,3313.25,7363.29,3027.50,1014.00
1791,1062.15,3323.38,7188.70,2948.00,1001.00
1800,1063.29,3333.45,5928.44,2854.00,1009.50
1809,1064.42,3343.48,4219.80,2742.50,1021.00
1818,1065.55,3353.45,3147.88,2649.00,1013.00
1827,1066.68,3363.38,2636.04,2543.50,1015.00
1836,1067.81,3373.25,3543.54,2463.50,983.00
1845,1068.93,3383.08,3587.93,2392.50,988.00
1854,1070.05,3392.85,2177.32,2319.50,1044.50
1863,1071.16,3402.58,1647.05,2181.50,998.00
1872,1072.27,3412.26,452.68,2081.00,1012.50
1881,1073.38,3421.89,186.37,1957.50,972.50
1890,1074.49,3431.47,289.85,1918.00,993.50
1899,1075.59,3441.00,1167.97,1869.50,997.00
1908,1076.69,3450.49,905.66,1831.50,1025.00
1917,1077.78,3459.93,1001.87,1735.50,991.50
1926,1078.87,3469.32,130.13,1696.50,1026.50
1935,1079.96,3478.66,1240.04,1635.50,994.00
1944,1081.05,3487.95,1261.92,1609.50,1013.00
1953,1082.13,3497.20,0.00,1543.50,1019.00
1962,1083.21,3506.40,449.51,1491.50,993.00
1971,1084.28,3515.56,541.45,1499.50,1036.50
1980,1085.36,3524.67,0.00,1425.50,1008.50
1989,1086.42,3533.73,1667.72,1404.50,987.00
1998,1087.49,3542.74,1662.47,1386.50,997.00
2007,1088.55,3551.71,1426.57,1342.00,983.00
2016,1089.61,3560.64,838.60,1312.50,986.00
2025,1090.67,3569.52,1111.36,1303.00,1000.00
2034,1091.72,3578.35,0.00,1223.00,963.00
2043,1092.77,3587.14,108.68,1221.00,972.00
2047,1093.23,3591.03,0.00,1175.50,943.00

File: metamizol Mg.csv
ENLIGHTEN Version,4.1.22
Measurement ID,20250220-203859-458903-WP-01977
Serial Number,WP-01977
Model,WP-785X-F13-R-ILC
Detector,S16011-1106
Label,metamizol Mg
Declared Match,
Declared Score,0
Scan Averaging,3
Boxcar,0
Technique,Raman
Baseline Correction Algo,AirPLS
ROI Pixel Start,47
ROI Pixel End,2047
ROI Start Line,0
ROI Stop Line,63
CCD C4,1.38617e-12
Slit Width,25
Cropped,True
Interpolated,False
Wavenumber Correction,-0.100481
Raman Intensity Corrected,True
Deconvolved,True
Region,
High Gain Mode,False
Laser Power mW,
Electrical Dark Correction,False
Battery %,
Device ID,<DeviceID USB:0x24aa:0x1000:0:1>
FW Version,10.0.0.10
FPGA Version,035-001
BLE Version,
Prefix,enlighten
Suffix,
Preset,
Auto-Raman,True
Session Count,0
Plugin Name,
Integration Time,355
Timestamp,2025-02-20 20:38:59.4589
Note,
Temperature,0
CCD C0,793.274
CCD C1,0.153259
CCD C2,1.40788e-05
CCD C3,-1.132e-08
CCD Offset,0
CCD Gain,1.9
CCD Offset Odd,0
CCD Gain Odd,1.9
Laser Wavelength,785.032
Laser Enable,False
Laser Power %,0
Laser Temperature,0
Pixel Count,2048

Pixel,Wavelength,Wavenumber,Processed,Raw,Dark
0,793.27,132.25,NA,984.33,921.00
9,794.65,154.15,NA,994.67,927.33
18,796.04,176.01,NA,1021.00,947.00
27,797.42,197.83,NA,1043.00,950.00
36,798.81,219.60,NA,1084.67,938.67
45,800.20,241.33,NA,6400.33,945.00
54,801.59,263.02,4148.70,11031.67,962.00
63,802.98,284.66,420.95,6284.00,962.67
72,804.38,306.26,2792.34,8336.33,953.33
81,805.77,327.82,50.71,5032.33,942.33
90,807.17,349.32,2474.15,7456.00,947.67
99,808.57,370.78,82.01,4231.00,951.67
108,809.98,392.19,0.00,3541.33,931.00
117,811.38,413.56,2591.93,6892.00,952.33
126,812.79,434.87,0.00,3400.00,945.67
135,814.19,456.14,263.62,4012.33,929.00
144,815.60,477.36,4439.71,9687.00,947.67
153,817.01,498.52,1167.98,5290.33,952.00
162,818.42,519.64,1360.63,5534.00,955.00
171,819.84,540.70,6.59,3552.00,938.67
180,821.25,561.71,2508.24,6794.67,933.00
189,822.67,582.67,3323.24,9550.67,940.33
198,824.09,603.57,2048.68,6782.00,935.00
207,825.50,624.43,1225.54,5433.33,952.67
216,826.92,645.22,6337.81,12938.33,940.00
225,828.34,665.97,646.43,4362.67,932.00
234,829.77,686.66,393.34,3589.00,975.33
243,831.19,707.29,0.00,2500.33,953.33
252,832.61,727.87,129.21,2707.33,950.67
261,834.04,748.39,1470.81,5252.67,932.00
270,835.47,768.85,9360.02,16774.00,931.33
279,836.89,789.26,732.04,3694.00,943.67
288,838.32,809.61,1535.23,5303.67,936.33
297,839.75,829.90,665.12,3635.67,959.33
306,841.18,850.14,3.65,2250.33,943.33
315,842.61,870.31,24.36,2290.00,945.33
324,844.04,890.43,2062.69,5578.33,930.67
333,845.47,910.49,855.42,3576.67,929.33
342,846.90,930.49,5.00,2374.67,935.33
351,848.33,950.43,0.00,2339.00,935.33
360,849.77,970.31,534.87,3378.33,938.67
369,851.20,990.12,7963.04,16474.00,946.33
378,852.63,1009.88,7611.82,16826.67,966.67
387,854.07,1029.58,4462.95,11114.00,938.33
396,855.50,1049.21,5276.80,12250.33,939.33
405,856.94,1068.79,186.44,4166.67,938.00
414,858.37,1088.30,11.45,3836.33,918.00
423,859.81,1107.75,1829.94,6841.67,950.33
432,861.25,1127.14,360.68,4617.67,940.00
441,862.68,1146.46,389.40,5190.67,929.00
450,864.12,1165.73,1275.86,7328.67,942.33
459,865.55,1184.93,1660.50,7203.33,916.67
468,866.99,1204.06,1911.66,6908.33,934.33
477,868.43,1223.14,0.02,4042.00,928.00
486,869.86,1242.15,117.00,4351.67,934.00
495,871.30,1261.10,0.00,4444.33,932.67
504,872.73,1279.98,54.28,5024.67,944.33
513,874.17,1298.80,1746.34,7613.67,933.33
522,875.60,1317.55,3453.73,10263.33,941.00
531,877.04,1336.24,4876.25,13536.33,924.67
540,878.47,1354.87,26489.63,41488.67,934.33
549,879.91,1373.43,4569.67,11852.33,932.67
558,881.34,1391.93,1399.40,7207.67,917.33
567,882.78,1410.36,4925.17,13015.00,926.00
576,884.21,1428.73,3482.31,11210.33,946.00
585,885.64,1447.03,4873.30,12995.00,929.33
594,887.08,1465.26,3046.08,10180.67,944.33
603,888.51,1483.43,1885.76,7809.67,938.00
612,889.94,1501.54,3783.54,10011.33,917.67
621,891.37,1519.58,322.71,5556.33,913.33
630,892.80,1537.56,0.00,5027.00,924.67
639,894.23,1555.46,6.76,5015.67,924.00
648,895.66,1573.31,901.03,6418.33,932.00
657,897.09,1591.09,15703.00,25323.33,924.00
666,898.52,1608.80,3800.84,10993.33,926.67
675,899.95,1626.44,19531.45,29535.33,933.00
684,901.37,1644.02,6570.66,14192.67,935.00
693,902.80,1661.54,1369.09,6500.00,948.00
702,904.22,1678.99,331.63,4596.33,916.67
711,905.64,1696.37,30.12,4010.33,933.67
720,907.07,1713.68,0.00,3598.33,924.00
729,908.49,1730.93,0.00,3382.67,930.00
738,909.91,1748.12,0.00,3226.00,928.00
747,911.33,1765.23,0.00,3070.67,924.67
756,912.75,1782.29,3.38,2977.33,916.67
765,914.16,1799.27,84.06,2977.00,926.67
774,915.58,1816.19,87.06,2896.33,915.67
783,916.99,1833.04,37.40,2760.00,924.67
792,918.41,1849.83,21.72,2660.67,929.00
801,919.82,1866.55,52.02,2612.33,930.00
810,921.23,1883.20,127.05,2614.33,932.33
819,922.64,1899.79,97.15,2482.00,912.67
828,924.05,1916.31,81.92,2397.33,924.00
837,925.46,1932.77,173.23,2398.67,920.33
846,926.86,1949.16,54.88,2220.33,929.67
855,928.27,1965.48,123.85,2193.00,914.33
864,929.67,1981.74,64.72,2078.00,930.00
873,931.07,1997.93,65.24,2011.33,939.00
882,932.47,2014.06,19.32,1874.67,920.33
891,933.87,2030.12,0.00,1786.67,928.00
900,935.27,2046.11,22.04,1757.33,944.33
909,936.66,2062.04,23.54,1693.33,937.00
918,938.06,2077.91,0.00,1596.00,925.33
927,939.45,2093.70,3.02,1559.33,930.67
936,940.84,2109.44,2.56,1498.33,920.00
945,942.23,2125.10,0.00,1457.33,923.33
954,943.62,2140.70,0.00,1428.33,934.00
963,945.00,2156.24,2.28,1401.33,919.00
972,946.39,2171.71,0.00,1382.33,922.67
981,947.77,2187.12,0.00,1367.00,917.00
990,949.15,2202.46,29.88,1388.67,928.00
999,950.53,2217.73,12.54,1357.00,914.00
1008,951.90,2232.94,33.33,1366.33,917.67
1017,953.28,2248.09,22.96,1363.33,932.00
1026,954.65,2263.17,16.79,1331.00,917.67
1035,956.02,2278.19,8.24,1321.00,927.33
1044,957.39,2293.14,18.40,1323.00,928.67
1053,958.75,2308.03,49.90,1324.33,914.67
1062,960.12,2322.85,30.06,1312.00,922.00
1071,961.48,2337.61,37.50,1306.33,921.33
1080,962.84,2352.31,39.51,1300.67,925.33
1089,964.20,2366.94,26.39,1286.67,926.00
1098,965.56,2381.51,34.32,1289.00,928.33
1107,966.91,2396.01,63.81,1307.33,928.67
1116,968.26,2410.45,46.95,1298.00,930.67
1125,969.61,2424.83,3.02,1252.00,919.00
1134,970.96,2439.14,53.25,1288.00,925.33
1143,972.30,2453.39,136.24,1331.33,924.00
1152,973.65,2467.58,82.28,1291.33,924.00
1161,974.99,2481.70,98.64,1290.67,921.33
1170,976.33,2495.76,76.59,1287.67,934.67
1179,977.66,2509.76,81.11,1277.33,927.33
1188,979.00,2523.70,86.20,1283.67,937.00
1197,980.33,2537.57,68.97,1246.00,914.67
1206,981.66,2551.38,65.35,1259.00,937.33
1215,982.98,2565.13,125.89,1274.33,922.00
1224,984.31,2578.82,314.69,1369.33,923.33
1233,985.63,2592.44,403.44,1391.00,921.67
1242,986.95,2606.01,84.43,1260.00,948.67
1251,988.27,2619.51,65.62,1232.00,938.00
1260,989.58,2632.95,75.66,1238.33,945.67
1269,990.89,2646.33,65.51,1233.33,952.00
1278,992.20,2659.65,31.07,1197.67,941.00
1287,993.51,2672.91,0.00,1176.67,943.67
1296,994.81,2686.10,0.75,1179.00,941.00
1305,996.12,2699.24,9.02,1184.33,941.00
1314,997.41,2712.32,10.02,1196.00,942.33
1323,998.71,2725.33,195.77,1266.67,932.33
1332,1000.01,2738.29,127.78,1276.00,949.00
1341,1001.30,2751.18,0.00,1249.33,966.00
1350,1002.59,2764.02,0.01,1281.00,956.33
1359,1003.87,2776.79,18.25,1322.33,936.33
1368,1005.15,2789.51,169.25,1450.33,947.00
1377,1006.43,2802.17,1487.81,1908.00,936.33
1386,1007.71,2814.77,1263.64,1874.67,921.67
1395,1008.99,2827.30,27.47,1548.67,930.67
1404,1010.26,2839.78,5.58,1596.67,945.33
1413,1011.53,2852.21,78.00,1715.67,939.67
1422,1012.80,2864.57,1599.77,2090.33,955.67
1431,1014.06,2876.87,1597.99,2098.00,929.00
1440,1015.32,2889.12,2518.81,2339.00,951.33
1449,1016.58,2901.31,4295.77,2754.33,935.33
1458,1017.83,2913.44,7066.00,3451.00,928.67
1467,1019.09,2925.51,13628.47,4739.33,940.33
1476,1020.33,2937.53,8394.94,3632.33,952.00
1485,1021.58,2949.49,3690.30,2532.00,943.00
1494,1022.82,2961.39,5164.32,2665.00,939.33
1503,1024.07,2973.23,3058.68,2340.33,961.33
1512,1025.30,2985.02,3520.24,2319.67,933.00
1521,1026.54,2996.75,2373.44,2053.67,939.67
1530,1027.77,3008.43,15.64,1642.00,940.33
1539,1029.00,3020.05,415.12,1641.33,931.00
1548,1030.22,3031.61,725.87,1662.67,939.33
1557,1031.45,3043.12,2252.26,1830.00,940.33
1566,1032.67,3054.57,2868.85,1954.67,933.67
1575,1033.88,3065.97,8006.06,2586.00,913.33
1584,1035.10,3077.31,11643.83,2850.00,945.00
1593,1036.31,3088.60,1807.79,1624.00,946.33
1602,1037.52,3099.83,850.25,1371.00,939.00
1611,1038.72,3111.00,194.68,1266.33,953.67
1620,1039.92,3122.13,12.71,1192.00,948.67
1629,1041.12,3133.20,0.00,1162.00,949.00
1638,1042.32,3144.21,65.19,1143.00,934.67
1647,1043.51,3155.17,38.27,1149.67,943.67
1656,1044.70,3166.08,181.72,1183.67,964.67
1665,1045.88,3176.93,168.39,1175.33,953.67
1674,1047.07,3187.73,348.60,1170.33,935.00
1683,1048.24,3198.48,139.40,1176.67,958.00
1692,1049.42,3209.17,114.86,1159.67,946.67
1701,1050.59,3219.81,222.68,1161.67,938.33
1710,1051.76,3230.40,171.66,1175.33,959.33
1719,1052.93,3240.94,471.52,1172.67,936.67
1728,1054.10,3251.42,628.20,1189.00,946.67
1737,1055.26,3261.86,700.64,1201.33,958.33
1746,1056.41,3272.24,704.42,1204.67,967.00
1755,1057.57,3282.57,919.41,1203.67,958.33
1764,1058.72,3292.85,724.71,1177.33,949.67
1773,1059.87,3303.07,527.61,1163.67,949.67
1782,1061.01,3313.25,336.73,1149.33,951.00
1791,1062.15,3323.38,542.82,1140.33,938.33
1800,1063.29,3333.45,675.50,1137.00,937.67
1809,1064.42,3343.48,778.98,1142.00,948.67
1818,1065.55,3353.45,897.17,1129.67,939.67
1827,1066.68,3363.38,1586.26,1150.67,943.00
1836,1067.81,3373.25,1635.61,1129.67,929.00
1845,1068.93,3383.08,1207.47,1108.00,933.67
1854,1070.05,3392.85,1858.64,1160.00,970.33
1863,1071.16,3402.58,1998.98,1125.33,938.67
1872,1072.27,3412.26,2334.58,1137.33,947.33
1881,1073.38,3421.89,2449.11,1107.67,926.67
1890,1074.49,3431.47,2903.55,1122.00,933.67
1899,1075.59,3441.00,2636.88,1109.33,938.67
1908,1076.69,3450.49,2678.71,1118.00,955.33
1917,1077.78,3459.93,2813.07,1088.67,929.67
1926,1078.87,3469.32,2664.32,1097.00,948.67
1935,1079.96,3478.66,2560.87,1067.67,930.33
1944,1081.05,3487.95,1874.42,1067.67,953.67
1953,1082.13,3497.20,1497.99,1049.00,950.67
1962,1083.21,3506.40,1781.22,1034.00,933.67
1971,1084.28,3515.56,1205.17,1044.67,963.33
1980,1085.36,3524.67,638.78,1010.67,943.00
1989,1086.42,3533.73,463.43,996.00,936.00
1998,1087.49,3542.74,569.85,999.33,942.33
2007,1088.55,3551.71,403.71,983.67,930.00
2016,1089.61,3560.64,632.09,982.33,931.00
2025,1090.67,3569.52,116.53,977.33,936.00
2034,1091.72,3578.35,137.11,956.33,916.33
2043,1092.77,3587.14,655.37,953.67,911.00
2047,1093.23,3591.03,114.57,945.00,903.00