Folder: ENLIGHTEN/plugins/Raman/MatchingLibrary/785X (part 6)

File: dichloromethane.csv
ENLIGHTEN Version,4.1.22
Measurement ID,20250220-195747-193211-WP-01977
Serial Number,WP-01977
Model,WP-785X-F13-R-ILC
Detector,S16011-1106
Label,dichloromethane
Declared Match,
Declared Score,0
Scan Averaging,10
Boxcar,0
Technique,Raman
Baseline Correction Algo,AirPLS
ROI Pixel Start,47
ROI Pixel End,2047
ROI Start Line,0
ROI Stop Line,63
CCD C4,1.38617e-12
Slit Width,25
Cropped,True
Interpolated,False
Wavenumber Correction,-0.100481
Raman Intensity Corrected,True
Deconvolved,True
Region,
High Gain Mode,False
Laser Power mW,
Electrical Dark Correction,False
Battery %,
Device ID,<DeviceID USB:0x24aa:0x1000:0:1>
FW Version,10.0.0.10
FPGA Version,035-001
BLE Version,
Prefix,enlighten
Suffix,
Preset,
Auto-Raman,True
Session Count,0
Plugin Name,
Integration Time,96
Timestamp,2025-02-20 19:57:47.1932
Note,
Temperature,0
CCD C0,793.274
CCD C1,0.153259
CCD C2,1.40788e-05
CCD C3,-1.132e-08
CCD Offset,0
CCD Gain,1.9
CCD Offset Odd,0
CCD Gain Odd,1.9
Laser Wavelength,785.032
Laser Enable,False
Laser Power %,0
Laser Temperature,0
Pixel Count,2048

Pixel,Wavelength,Wavenumber,Processed,Raw,Dark
0,793.27,132.25,NA,888.30,863.80
9,794.65,154.15,NA,887.40,866.10
18,796.04,176.01,NA,888.40,869.10
27,797.42,197.83,NA,897.70,869.60
36,798.81,219.60,NA,910.90,868.00
45,800.20,241.33,NA,1471.70,869.50
54,801.59,263.02,764.58,2482.30,875.30
63,802.98,284.66,17753.59,21147.60,873.10
72,804.38,306.26,981.57,2719.50,867.00
81,805.77,327.82,178.07,1486.80,870.20
90,807.17,349.32,22.62,1198.50,867.40
99,808.57,370.78,0.00,1084.50,870.90
108,809.98,392.19,0.00,1044.60,867.70
117,811.38,413.56,11.66,1063.50,869.70
126,812.79,434.87,1.65,1034.10,867.40
135,814.19,456.14,2.19,1024.60,863.30
144,815.60,477.36,3.30,1022.30,868.50
153,817.01,498.52,2.16,1013.60,869.20
162,818.42,519.64,0.02,1003.30,869.80
171,819.84,540.70,0.00,992.20,864.00
180,821.25,561.71,19.33,1044.70,865.40
189,822.67,582.67,4.87,1045.70,867.60
198,824.09,603.57,0.00,1038.00,865.80
207,825.50,624.43,0.00,1098.90,870.10
216,826.92,645.22,48.91,1247.90,865.80
225,828.34,665.97,291.26,1666.20,864.80
234,829.77,686.66,2088.99,5294.40,873.90
243,831.19,707.29,23597.60,37593.20,878.20
252,832.61,727.87,2449.50,5453.00,870.80
261,834.04,748.39,2889.14,5964.30,869.80
270,835.47,768.85,629.48,2291.50,865.60
279,836.89,789.26,189.20,1526.30,866.60
288,838.32,809.61,43.17,1280.10,866.60
297,839.75,829.90,0.00,1150.50,872.90
306,841.18,850.14,0.00,1089.20,868.60
315,842.61,870.31,7.88,1089.30,866.60
324,844.04,890.43,118.14,1262.10,869.00
333,845.47,910.49,49.67,1135.80,866.80
342,846.90,930.49,7.45,1044.20,869.40
351,848.33,950.43,0.00,1014.00,869.60
360,849.77,970.31,0.11,1007.70,866.60
369,851.20,990.12,40.60,1065.70,870.30
378,852.63,1009.88,0.00,999.10,874.90
387,854.07,1029.58,0.55,997.70,863.40
396,855.50,1049.21,0.00,1006.50,867.40
405,856.94,1068.79,1.78,1030.00,865.20
414,858.37,1088.30,2.04,1056.20,864.60
423,859.81,1107.75,26.25,1127.10,870.70
432,861.25,1127.14,92.72,1266.00,869.20
441,862.68,1146.46,503.56,2049.30,869.00
450,864.12,1165.73,511.49,2081.60,866.80
459,865.55,1184.93,92.24,1319.10,860.70
468,866.99,1204.06,20.91,1220.40,863.70
477,868.43,1223.14,0.00,1202.30,864.60
486,869.86,1242.15,0.16,1254.90,865.90
495,871.30,1261.10,122.11,1494.90,867.10
504,872.73,1279.98,41.94,1425.90,866.60
513,874.17,1298.80,9.78,1413.90,865.80
522,875.60,1317.55,12.22,1467.00,870.40
531,877.04,1336.24,8.79,1499.50,863.00
540,878.47,1354.87,45.82,1567.10,865.00
549,879.91,1373.43,105.76,1663.70,866.80
558,881.34,1391.93,243.74,1884.90,862.30
567,882.78,1410.36,828.64,2903.10,862.40
576,884.21,1428.73,1653.64,4123.60,870.00
585,885.64,1447.03,381.83,2087.30,864.80
594,887.08,1465.26,263.26,1888.50,868.60
603,888.51,1483.43,179.90,1760.30,870.50
612,889.94,1501.54,81.43,1597.00,861.70
621,891.37,1519.58,16.76,1500.60,862.20
630,892.80,1537.56,6.44,1465.80,864.10
639,894.23,1555.46,0.00,1419.50,862.40
648,895.66,1573.31,0.94,1396.20,865.00
657,897.09,1591.09,0.24,1373.60,863.00
666,898.52,1608.80,1.89,1358.90,864.60
675,899.95,1626.44,15.29,1359.10,864.00
684,901.37,1644.02,19.34,1346.60,862.70
693,902.80,1661.54,28.53,1348.20,871.10
702,904.22,1678.99,22.03,1312.70,862.40
711,905.64,1696.37,27.47,1307.00,866.80
720,907.07,1713.68,22.68,1282.30,865.00
729,908.49,1730.93,13.20,1253.40,865.00
738,909.91,1748.12,10.54,1232.60,864.20
747,911.33,1765.23,0.19,1204.10,864.10
756,912.75,1782.29,17.50,1212.50,863.80
765,914.16,1799.27,16.34,1194.10,863.10
774,915.58,1816.19,13.08,1170.10,861.70
783,916.99,1833.04,16.12,1163.10,866.30
792,918.41,1849.83,22.09,1154.40,865.90
801,919.82,1866.55,29.95,1146.90,864.90
810,921.23,1883.20,37.88,1141.20,865.80
819,922.64,1899.79,32.38,1117.40,861.10
828,924.05,1916.31,28.35,1103.10,864.00
837,925.46,1932.77,30.14,1089.80,863.10
846,926.86,1949.16,27.54,1073.10,862.80
855,928.27,1965.48,34.52,1064.00,858.80
864,929.67,1981.74,31.80,1053.10,864.40
873,931.07,1997.93,59.90,1067.00,864.00
882,932.47,2014.06,22.57,1019.30,864.80
891,933.87,2030.12,7.95,990.40,865.10
900,935.27,2046.11,10.70,985.90,869.20
909,936.66,2062.04,22.51,985.60,870.60
918,938.06,2077.91,5.62,951.60,864.70
927,939.45,2093.70,2.78,939.20,865.00
936,940.84,2109.44,0.00,926.20,864.00
945,942.23,2125.10,0.00,922.30,868.80
954,943.62,2140.70,0.62,920.30,865.10
963,945.00,2156.24,6.96,919.50,861.80
972,946.39,2171.71,2.34,913.80,863.20
981,947.77,2187.12,2.22,907.30,860.60
990,949.15,2202.46,6.74,909.70,862.20
999,950.53,2217.73,0.00,903.80,865.30
1008,951.90,2232.94,4.30,906.20,862.60
1017,953.28,2248.09,16.30,917.80,866.40
1026,954.65,2263.17,12.13,912.40,864.20
1035,956.02,2278.19,27.49,923.90,863.90
1044,957.39,2293.14,80.35,971.10,867.40
1053,958.75,2308.03,161.63,1018.20,860.50
1062,960.12,2322.85,61.07,945.50,862.20
1071,961.48,2337.61,16.94,913.70,865.30
1080,962.84,2352.31,16.93,908.70,862.50
1089,964.20,2366.94,10.55,903.80,863.60
1098,965.56,2381.51,16.36,906.50,864.80
1107,966.91,2396.01,13.20,902.80,863.70
1116,968.26,2410.45,27.12,907.80,861.70
1125,969.61,2424.83,4.96,898.40,867.40
1134,970.96,2439.14,9.00,896.00,864.50
1143,972.30,2453.39,0.00,890.00,865.20
1152,973.65,2467.58,10.30,892.90,862.80
1161,974.99,2481.70,10.82,894.20,865.10
1170,976.33,2495.76,24.45,902.30,865.40
1179,977.66,2509.76,54.13,923.50,865.50
1188,979.00,2523.70,182.98,982.30,865.90
1197,980.33,2537.57,57.96,914.00,861.00
1206,981.66,2551.38,13.43,895.40,869.40
1215,982.98,2565.13,12.32,886.00,863.20
1224,984.31,2578.82,8.70,882.40,862.30
1233,985.63,2592.44,5.09,882.10,864.30
1242,986.95,2606.01,3.84,887.30,870.60
1251,988.27,2619.51,5.78,885.60,868.70
1260,989.58,2632.95,20.59,888.30,866.40
1269,990.89,2646.33,5.95,889.10,874.20
1278,992.20,2659.65,11.61,885.40,868.00
1287,993.51,2672.91,26.60,890.70,866.60
1296,994.81,2686.10,55.80,900.70,867.10
1305,996.12,2699.24,16.49,887.90,869.40
1314,997.41,2712.32,8.84,885.60,870.00
1323,998.71,2725.33,16.69,884.10,866.20
1332,1000.01,2738.29,12.85,886.90,871.30
1341,1001.30,2751.18,0.00,889.00,877.80
1350,1002.59,2764.02,9.27,885.70,868.90
1359,1003.87,2776.79,0.00,881.90,868.60
1368,1005.15,2789.51,1.84,885.80,868.10
1377,1006.43,2802.17,0.07,889.80,868.60
1386,1007.71,2814.77,22.14,901.40,864.80
1395,1008.99,2827.30,316.09,995.00,866.40
1404,1010.26,2839.78,172.96,967.60,869.40
1413,1011.53,2852.21,21.23,914.00,866.80
1422,1012.80,2864.57,24.04,922.70,870.80
1431,1014.06,2876.87,21.56,918.40,865.40
1440,1015.32,2889.12,6.61,922.30,869.40
1449,1016.58,2901.31,0.00,920.30,870.60
1458,1017.83,2913.44,12.35,929.30,863.30
1467,1019.09,2925.51,0.00,944.00,869.20
1476,1020.33,2937.53,6.42,974.20,870.60
1485,1021.58,2949.49,96.39,1016.50,869.90
1494,1022.82,2961.39,667.51,1139.70,867.00
1503,1024.07,2973.23,2398.56,1576.80,876.90
1512,1025.30,2985.02,22184.29,4824.80,864.70
1521,1026.54,2996.75,6234.45,2480.10,869.90
1530,1027.77,3008.43,2628.05,1478.50,869.60
1539,1029.00,3020.05,1248.81,1212.70,866.80
1548,1030.22,3031.61,1106.88,1174.90,868.50
1557,1031.45,3043.12,1674.37,1260.10,869.80
1566,1032.67,3054.57,2514.52,1350.70,865.80
1575,1033.88,3065.97,1428.19,1187.90,859.50
1584,1035.10,3077.31,569.69,1063.80,870.50
1593,1036.31,3088.60,242.49,1008.30,869.20
1602,1037.52,3099.83,28.37,974.10,869.90
1611,1038.72,3111.00,15.75,960.40,870.70
1620,1039.92,3122.13,0.00,944.60,872.30
1629,1041.12,3133.20,25.32,938.40,872.30
1638,1042.32,3144.21,0.00,920.80,867.40
1647,1043.51,3155.17,2.42,920.00,871.50
1656,1044.70,3166.08,2.35,920.00,876.00
1665,1045.88,3176.93,10.86,914.20,872.00
1674,1047.07,3187.73,44.52,909.00,866.70
1683,1048.24,3198.48,60.66,914.30,872.50
1692,1049.42,3209.17,91.44,911.60,870.20
1701,1050.59,3219.81,76.58,907.70,869.00
1710,1051.76,3230.40,128.40,914.30,873.40
1719,1052.93,3240.94,181.67,908.20,866.20
1728,1054.10,3251.42,174.77,912.10,873.10
1737,1055.26,3261.86,229.05,915.10,874.10
1746,1056.41,3272.24,267.18,915.90,875.10
1755,1057.57,3282.57,244.18,913.20,875.40
1764,1058.72,3292.85,339.92,909.90,868.60
1773,1059.87,3303.07,275.99,906.60,871.10
1782,1061.01,3313.25,400.63,905.80,867.40
1791,1062.15,3323.38,300.25,901.10,868.60
1800,1063.29,3333.45,213.81,896.60,870.60
1809,1064.42,3343.48,318.57,900.10,871.30
1818,1065.55,3353.45,279.58,896.60,869.60
1827,1066.68,3363.38,276.01,897.10,870.70
1836,1067.81,3373.25,466.12,891.90,863.80
1845,1068.93,3383.08,237.10,886.80,865.70
1854,1070.05,3392.85,320.19,896.40,874.70
1863,1071.16,3402.58,474.95,893.50,868.50
1872,1072.27,3412.26,200.56,887.00,871.40
1881,1073.38,3421.89,492.34,884.60,861.50
1890,1074.49,3431.47,377.41,884.50,865.50
1899,1075.59,3441.00,256.51,883.70,869.00
1908,1076.69,3450.49,342.88,888.60,873.50
1917,1077.78,3459.93,361.92,883.20,867.40
1926,1078.87,3469.32,253.42,885.90,874.60
1935,1079.96,3478.66,290.12,877.90,865.80
1944,1081.05,3487.95,281.76,884.00,872.70
1953,1082.13,3497.20,274.23,881.70,871.30
1962,1083.21,3506.40,329.84,878.40,867.80
1971,1084.28,3515.56,433.56,883.50,871.40
1980,1085.36,3524.67,179.35,878.00,871.80
1989,1086.42,3533.73,331.20,874.20,865.10
1998,1087.49,3542.74,412.96,878.40,868.90
2007,1088.55,3551.71,474.66,875.20,865.00
2016,1089.61,3560.64,242.05,874.10,868.00
2025,1090.67,3569.52,536.13,874.20,865.30
2034,1091.72,3578.35,273.44,867.80,861.90
2043,1092.77,3587.14,213.02,865.60,861.70
2047,1093.23,3591.03,40.73,864.40,861.50

File: diethylether.csv
ENLIGHTEN Version,4.1.22
Measurement ID,20250220-195350-334154-WP-01977
Serial Number,WP-01977
Model,WP-785X-F13-R-ILC
Detector,S16011-1106
Label,diethylether
Declared Match,
Declared Score,0
Scan Averaging,2
Boxcar,0
Technique,Raman
Baseline Correction Algo,AirPLS
ROI Pixel Start,47
ROI Pixel End,2047
ROI Start Line,0
ROI Stop Line,63
CCD C4,1.38617e-12
Slit Width,25
Cropped,True
Interpolated,False
Wavenumber Correction,-0.100481
Raman Intensity Corrected,True
Deconvolved,True
Region,
High Gain Mode,False
Laser Power mW,
Electrical Dark Correction,False
Battery %,
Device ID,<DeviceID USB:0x24aa:0x1000:0:1>
FW Version,10.0.0.10
FPGA Version,035-001
BLE Version,
Prefix,enlighten
Suffix,
Preset,
Auto-Raman,True
Session Count,0
Plugin Name,
Integration Time,738
Timestamp,2025-02-20 19:53:50.3342
Note,
Temperature,0
CCD C0,793.274
CCD C1,0.153259
CCD C2,1.40788e-05
CCD C3,-1.132e-08
CCD Offset,0
CCD Gain,1.9
CCD Offset Odd,0
CCD Gain Odd,1.9
Laser Wavelength,785.032
Laser Enable,False
Laser Power %,0
Laser Temperature,0
Pixel Count,2048

Pixel,Wavelength,Wavenumber,Processed,Raw,Dark
0,793.27,132.25,NA,1051.50,1001.00
9,794.65,154.15,NA,1080.00,1026.00
18,796.04,176.01,NA,1118.50,1053.00
27,797.42,197.83,NA,1135.00,1068.50
36,798.81,219.60,NA,1133.00,1035.50
45,800.20,241.33,NA,4395.00,1049.50
54,801.59,263.02,25.28,4293.50,1084.50
63,802.98,284.66,78.49,4309.50,1077.00
72,804.38,306.26,361.03,4561.50,1061.50
81,805.77,327.82,41.03,4059.50,1049.00
90,807.17,349.32,206.45,4216.00,1054.00
99,808.57,370.78,3000.61,7976.00,1062.50
108,809.98,392.19,1653.55,6176.50,1046.50
117,811.38,413.56,1406.27,5713.00,1066.50
126,812.79,434.87,16034.78,27900.50,1067.50
135,814.19,456.14,3190.24,8965.00,1016.00
144,815.60,477.36,834.55,4506.00,1049.00
153,817.01,498.52,2873.23,7235.50,1074.00
162,818.42,519.64,819.34,4293.50,1063.50
171,819.84,540.70,2345.26,6052.00,1030.50
180,821.25,561.71,289.78,3099.50,1017.00
189,822.67,582.67,0.15,2453.50,1030.00
198,824.09,603.57,8.74,2364.00,1023.50
207,825.50,624.43,3.66,2274.50,1062.50
216,826.92,645.22,0.00,2088.50,1032.50
225,828.34,665.97,109.51,2167.50,1011.50
234,829.77,686.66,1.07,2031.50,1063.50
243,831.19,707.29,2.27,1999.50,1066.00
252,832.61,727.87,0.00,2009.00,1080.00
261,834.04,748.39,13.92,2183.50,1037.00
270,835.47,768.85,317.67,2816.50,1027.50
279,836.89,789.26,2807.58,7201.50,1044.50
288,838.32,809.61,3587.66,8755.00,1037.00
297,839.75,829.90,9837.63,20105.00,1086.00
306,841.18,850.14,14940.57,27780.50,1069.50
315,842.61,870.31,2476.61,7138.50,1050.00
324,844.04,890.43,2284.82,6900.50,1022.00
333,845.47,910.49,3871.85,9514.00,1037.50
342,846.90,930.49,3334.16,8886.50,1053.50
351,848.33,950.43,1161.42,5245.00,1046.00
360,849.77,970.31,12.59,3361.50,1030.50
369,851.20,990.12,136.24,3708.00,1053.00
378,852.63,1009.88,1065.14,5475.50,1077.00
387,854.07,1029.58,3013.65,8744.50,1027.50
396,855.50,1049.21,3541.28,9698.00,1044.50
405,856.94,1068.79,4733.00,11937.00,1050.50
414,858.37,1088.30,4437.74,11918.00,1012.00
423,859.81,1107.75,5675.60,13892.00,1060.00
432,861.25,1127.14,5919.57,14100.00,1066.50
441,862.68,1146.46,10563.03,22052.50,1036.00
450,864.12,1165.73,2993.40,10216.50,1055.00
459,865.55,1184.93,908.00,5871.00,1001.00
468,866.99,1204.06,0.00,4468.50,1037.00
477,868.43,1223.14,5.06,4790.50,1025.50
486,869.86,1242.15,1138.37,6862.50,1034.00
495,871.30,1261.10,4964.84,13348.50,1033.00
504,872.73,1279.98,5984.54,15011.50,1044.50
513,874.17,1298.80,2939.29,10010.00,1036.00
522,875.60,1317.55,2119.27,8839.50,1039.00
531,877.04,1336.24,1841.74,8535.00,1005.50
540,878.47,1354.87,2063.39,8973.50,1021.00
549,879.91,1373.43,2740.55,10065.00,1039.00
558,881.34,1391.93,2987.29,10601.50,991.50
567,882.78,1410.36,3678.99,11821.50,1025.00
576,884.21,1428.73,6032.52,15989.00,1052.50
585,885.64,1447.03,22636.05,40022.50,1024.00
594,887.08,1465.26,18339.30,34631.00,1059.00
603,888.51,1483.43,8434.86,19608.50,1046.50
612,889.94,1501.54,4617.57,13816.50,1003.00
621,891.37,1519.58,1938.04,9584.50,987.50
630,892.80,1537.56,886.47,8072.50,1005.50
639,894.23,1555.46,184.37,7170.50,1013.50
648,895.66,1573.31,50.19,6713.50,1027.50
657,897.09,1591.09,24.55,6333.50,1007.50
666,898.52,1608.80,0.00,6002.50,1008.00
675,899.95,1626.44,196.86,6083.00,1016.00
684,901.37,1644.02,335.68,6056.50,1013.00
693,902.80,1661.54,377.78,5934.00,1049.00
702,904.22,1678.99,283.67,5544.00,993.50
711,905.64,1696.37,355.81,5442.50,1032.00
720,907.07,1713.68,375.32,5232.50,1000.00
729,908.49,1730.93,581.22,5238.00,1012.50
738,909.91,1748.12,334.32,4742.00,1015.00
747,911.33,1765.23,44.90,4202.50,1011.50
756,912.75,1782.29,0.00,3888.50,1000.00
765,914.16,1799.27,3.40,3774.50,1015.00
774,915.58,1816.19,25.86,3642.50,992.50
783,916.99,1833.04,88.60,3605.50,1022.00
792,918.41,1849.83,75.23,3466.00,1020.00
801,919.82,1866.55,141.70,3408.50,1010.00
810,921.23,1883.20,183.97,3366.50,1033.00
819,922.64,1899.79,180.67,3200.00,997.00
828,924.05,1916.31,203.40,3123.50,1014.00
837,925.46,1932.77,186.39,2971.50,1013.00
846,926.86,1949.16,144.72,2810.50,1016.00
855,928.27,1965.48,135.80,2661.50,994.00
864,929.67,1981.74,123.63,2565.00,1021.00
873,931.07,1997.93,124.00,2454.50,1028.00
882,932.47,2014.06,52.94,2260.50,1009.50
891,933.87,2030.12,30.68,2132.50,1016.50
900,935.27,2046.11,19.49,2060.00,1059.50
909,936.66,2062.04,0.00,1927.00,1045.00
918,938.06,2077.91,21.07,1862.00,1012.50
927,939.45,2093.70,33.89,1803.00,1018.00
936,940.84,2109.44,0.00,1684.00,1015.00
945,942.23,2125.10,0.00,1627.50,1029.50
954,943.62,2140.70,0.00,1608.00,1033.00
963,945.00,2156.24,31.11,1589.50,999.00
972,946.39,2171.71,46.09,1610.00,1016.00
981,947.77,2187.12,146.07,1665.50,997.00
990,949.15,2202.46,206.07,1729.00,1022.00
999,950.53,2217.73,253.48,1731.00,997.00
1008,951.90,2232.94,344.76,1782.50,989.50
1017,953.28,2248.09,306.53,1790.00,1043.50
1026,954.65,2263.17,353.10,1763.00,1006.00
1035,956.02,2278.19,377.96,1787.00,1015.00
1044,957.39,2293.14,466.99,1826.50,1012.00
1053,958.75,2308.03,315.95,1680.50,1004.00
1062,960.12,2322.85,246.00,1600.50,1003.50
1071,961.48,2337.61,76.72,1471.50,1004.00
1080,962.84,2352.31,2.65,1411.00,1019.50
1089,964.20,2366.94,0.00,1390.00,1027.50
1098,965.56,2381.51,20.99,1418.00,1020.00
1107,966.91,2396.01,4.23,1419.50,1025.00
1116,968.26,2410.45,0.00,1423.50,1019.00
1125,969.61,2424.83,5.46,1433.50,1006.50
1134,970.96,2439.14,0.61,1448.00,1006.00
1143,972.30,2453.39,45.77,1491.50,1007.50
1152,973.65,2467.58,0.00,1486.00,1021.00
1161,974.99,2481.70,14.06,1548.50,1019.00
1170,976.33,2495.76,35.15,1618.00,1026.00
1179,977.66,2509.76,0.50,1641.50,1017.00
1188,979.00,2523.70,206.16,1830.00,1040.00
1197,980.33,2537.57,434.37,1960.00,1003.00
1206,981.66,2551.38,261.13,1958.50,1045.50
1215,982.98,2565.13,160.87,1895.00,1007.50
1224,984.31,2578.82,101.69,1923.00,1016.50
1233,985.63,2592.44,559.16,2163.50,1006.00
1242,986.95,2606.01,691.30,2314.00,1057.00
1251,988.27,2619.51,552.81,2272.00,1052.00
1260,989.58,2632.95,315.97,2175.00,1046.50
1269,990.89,2646.33,81.30,2118.00,1088.50
1278,992.20,2659.65,0.00,2067.00,1046.00
1287,993.51,2672.91,0.00,2181.50,1048.50
1296,994.81,2686.10,830.90,3357.00,1047.50
1305,996.12,2699.24,3363.95,4628.00,1056.00
1314,997.41,2712.32,1551.16,4210.00,1063.00
1323,998.71,2725.33,2638.65,5041.50,1032.00
1332,1000.01,2738.29,1712.88,5090.50,1064.50
1341,1001.30,2751.18,629.58,4847.00,1100.50
1350,1002.59,2764.02,15.15,4969.50,1063.50
1359,1003.87,2776.79,2548.18,5856.50,1052.00
1368,1005.15,2789.51,601.46,5748.50,1046.50
1377,1006.43,2802.17,15373.36,9925.50,1058.50
1386,1007.71,2814.77,14505.61,9523.00,1029.50
1395,1008.99,2827.30,6379.45,6974.50,1033.50
1404,1010.26,2839.78,13592.42,9013.50,1065.50
1413,1011.53,2852.21,40399.05,16297.00,1049.00
1422,1012.80,2864.57,71541.52,24798.50,1093.00
1431,1014.06,2876.87,80098.13,25697.00,1027.50
1440,1015.32,2889.12,49863.45,17726.50,1062.00
1449,1016.58,2901.31,52734.98,17188.00,1062.50
1458,1017.83,2913.44,51907.42,17137.50,1038.00
1467,1019.09,2925.51,100972.40,27864.50,1063.50
1476,1020.33,2937.53,131776.62,32697.50,1076.00
1485,1021.58,2949.49,65579.64,18624.50,1072.50
1494,1022.82,2961.39,42557.84,12915.50,1054.00
1503,1024.07,2973.23,53500.60,14233.00,1097.50
1512,1025.30,2985.02,48056.14,12603.00,1028.50
1521,1026.54,2996.75,22517.60,7584.50,1054.00
1530,1027.77,3008.43,9737.49,4925.00,1049.00
1539,1029.00,3020.05,2670.41,3463.50,1019.00
1548,1030.22,3031.61,0.12,2703.00,1033.50
1557,1031.45,3043.12,0.00,2311.50,1054.00
1566,1032.67,3054.57,0.00,2035.50,1032.00
1575,1033.88,3065.97,0.00,1793.50,998.00
1584,1035.10,3077.31,0.00,1751.00,1054.00
1593,1036.31,3088.60,193.59,1671.00,1048.50
1602,1037.52,3099.83,88.85,1581.00,1036.00
1611,1038.72,3111.00,7.74,1539.00,1065.50
1620,1039.92,3122.13,0.00,1483.50,1066.50
1629,1041.12,3133.20,0.03,1459.50,1071.00
1638,1042.32,3144.21,116.82,1417.50,1038.50
1647,1043.51,3155.17,368.70,1438.50,1053.00
1656,1044.70,3166.08,600.54,1474.50,1086.00
1665,1045.88,3176.93,810.80,1474.00,1072.00
1674,1047.07,3187.73,1078.19,1438.50,1033.00
1683,1048.24,3198.48,1589.91,1510.00,1075.00
1692,1049.42,3209.17,1967.64,1515.50,1068.50
1701,1050.59,3219.81,2098.59,1493.50,1049.00
1710,1051.76,3230.40,2204.15,1523.00,1094.00
1719,1052.93,3240.94,2397.32,1460.50,1032.00
1728,1054.10,3251.42,2527.43,1485.00,1067.00
1737,1055.26,3261.86,2895.61,1490.50,1068.00
1746,1056.41,3272.24,2602.75,1479.50,1092.00
1755,1057.57,3282.57,2629.35,1472.00,1101.50
1764,1058.72,3292.85,2896.91,1434.00,1063.50
1773,1059.87,3303.07,2775.49,1404.50,1060.00
1782,1061.01,3313.25,2351.56,1373.00,1061.00
1791,1062.15,3323.38,2920.63,1364.00,1041.00
1800,1063.29,3333.45,2593.60,1340.00,1048.50
1809,1064.42,3343.48,2757.67,1345.50,1059.00
1818,1065.55,3353.45,2645.85,1323.50,1055.00
1827,1066.68,3363.38,2608.68,1313.00,1058.00
1836,1067.81,3373.25,2293.09,1258.50,1029.50
1845,1068.93,3383.08,2459.30,1247.00,1026.50
1854,1070.05,3392.85,2569.64,1320.00,1100.50
1863,1071.16,3402.58,2908.81,1256.50,1039.00
1872,1072.27,3412.26,2577.12,1260.00,1061.00
1881,1073.38,3421.89,2290.49,1195.00,1012.00
1890,1074.49,3431.47,3269.64,1230.00,1031.50
1899,1075.59,3441.00,2340.39,1207.00,1041.00
1908,1076.69,3450.49,2502.84,1229.50,1067.50
1917,1077.78,3459.93,2300.84,1173.50,1023.50
1926,1078.87,3469.32,2531.85,1207.00,1057.00
1935,1079.96,3478.66,2167.53,1167.00,1036.00
1944,1081.05,3487.95,2450.24,1195.00,1059.00
1953,1082.13,3497.20,2165.10,1183.50,1062.50
1962,1083.21,3506.40,1207.27,1131.00,1035.50
1971,1084.28,3515.56,1614.15,1187.00,1086.00
1980,1085.36,3524.67,2568.77,1161.00,1049.50
1989,1086.42,3533.73,2135.11,1123.00,1023.00
1998,1087.49,3542.74,2197.07,1136.50,1043.00
2007,1088.55,3551.71,697.87,1090.00,1023.50
2016,1089.61,3560.64,1016.62,1094.00,1026.50
2025,1090.67,3569.52,1927.71,1115.00,1038.00
2034,1091.72,3578.35,1036.29,1050.50,984.50
2043,1092.77,3587.14,146.22,1039.00,992.50
2047,1093.23,3591.03,305.76,1027.50,968.00