Folder: ENLIGHTEN/plugins/Raman/MatchingLibrary/785X (part 14)

File: sucrose.csv
ENLIGHTEN Version,4.1.22
Measurement ID,20250220-201351-223302-WP-01977
Serial Number,WP-01977
Model,WP-785X-F13-R-ILC
Detector,S16011-1106
Label,sucrose
Declared Match,
Declared Score,0
Scan Averaging,1
Boxcar,0
Technique,Raman
Baseline Correction Algo,AirPLS
ROI Pixel Start,47
ROI Pixel End,2047
ROI Start Line,0
ROI Stop Line,63
CCD C4,1.38617e-12
Slit Width,25
Cropped,True
Interpolated,False
Wavenumber Correction,-0.100481
Raman Intensity Corrected,True
Deconvolved,True
Region,
High Gain Mode,False
Laser Power mW,
Electrical Dark Correction,False
Battery %,
Device ID,<DeviceID USB:0x24aa:0x1000:0:1>
FW Version,10.0.0.10
FPGA Version,035-001
BLE Version,
Prefix,enlighten
Suffix,
Preset,
Auto-Raman,True
Session Count,0
Plugin Name,
Integration Time,1659
Timestamp,2025-02-20 20:13:51.2233
Note,
Temperature,0
CCD C0,793.274
CCD C1,0.153259
CCD C2,1.40788e-05
CCD C3,-1.132e-08
CCD Offset,0
CCD Gain,1.9
CCD Offset Odd,0
CCD Gain Odd,1.9
Laser Wavelength,785.032
Laser Enable,False
Laser Power %,0
Laser Temperature,0
Pixel Count,2048

Pixel,Wavelength,Wavenumber,Processed,Raw,Dark
0,793.27,132.25,NA,1378.00,1205.00
9,794.65,154.15,NA,1469.00,1281.00
18,796.04,176.01,NA,1551.00,1332.00
27,797.42,197.83,NA,1626.00,1332.00
36,798.81,219.60,NA,1718.00,1277.00
45,800.20,241.33,NA,14889.00,1311.00
54,801.59,263.02,255.11,15743.00,1395.00
63,802.98,284.66,2214.19,17710.00,1368.00
72,804.38,306.26,2265.10,18661.00,1332.00
81,805.77,327.82,193.06,16265.00,1319.00
90,807.17,349.32,954.81,17287.00,1327.00
99,808.57,370.78,2139.72,19168.00,1355.00
108,809.98,392.19,2719.83,21311.00,1290.00
117,811.38,413.56,4197.67,23567.00,1345.00
126,812.79,434.87,2250.77,20440.00,1292.00
135,814.19,456.14,305.89,17496.00,1264.00
144,815.60,477.36,600.54,17461.00,1347.00
153,817.01,498.52,1897.67,19136.00,1351.00
162,818.42,519.64,4121.47,23460.00,1357.00
171,819.84,540.70,8538.17,29625.00,1287.00
180,821.25,561.71,3954.70,22817.00,1260.00
189,822.67,582.67,3644.95,20970.00,1275.00
198,824.09,603.57,9.33,15774.00,1262.00
207,825.50,624.43,680.38,16806.00,1342.00
216,826.92,645.22,5585.67,23601.00,1306.00
225,828.34,665.97,0.00,14595.00,1247.00
234,829.77,686.66,569.19,15844.00,1640.00
243,831.19,707.29,837.73,15698.00,1382.00
252,832.61,727.87,751.59,15512.00,1376.00
261,834.04,748.39,1236.98,15838.00,1287.00
270,835.47,768.85,19.55,13393.00,1241.00
279,836.89,789.26,0.00,13063.00,1298.00
288,838.32,809.61,0.00,12928.00,1302.00
297,839.75,829.90,501.87,14130.00,1376.00
306,841.18,850.14,19476.83,39926.00,1345.00
315,842.61,870.31,3658.08,18991.00,1309.00
324,844.04,890.43,17.68,13503.00,1252.00
333,845.47,910.49,4341.09,20231.00,1296.00
342,846.90,930.49,1872.52,17418.00,1319.00
351,848.33,950.43,1214.03,15648.00,1294.00
360,849.77,970.31,0.00,12926.00,1281.00
369,851.20,990.12,1212.42,15343.00,1302.00
378,852.63,1009.88,3624.50,20083.00,1387.00
387,854.07,1029.58,2083.84,19728.00,1260.00
396,855.50,1049.21,4802.33,23946.00,1283.00
405,856.94,1068.79,2838.36,20385.00,1309.00
414,858.37,1088.30,5353.97,24383.00,1243.00
423,859.81,1107.75,4624.30,24332.00,1351.00
432,861.25,1127.14,13202.05,37008.00,1353.00
441,862.68,1146.46,178.35,18004.00,1260.00
450,864.12,1165.73,3790.41,23305.00,1289.00
459,865.55,1184.93,0.00,16309.00,1188.00
468,866.99,1204.06,1185.50,19825.00,1285.00
477,868.43,1223.14,378.14,20343.00,1264.00
486,869.86,1242.15,6213.81,29885.00,1283.00
495,871.30,1261.10,2567.74,25448.00,1260.00
504,872.73,1279.98,1939.27,25873.00,1281.00
513,874.17,1298.80,1005.13,25594.00,1271.00
522,875.60,1317.55,2835.52,29053.00,1300.00
531,877.04,1336.24,4562.30,32322.00,1232.00
540,878.47,1354.87,7016.99,36282.00,1262.00
549,879.91,1373.43,7729.78,37148.00,1309.00
558,881.34,1391.93,3924.05,31244.00,1192.00
567,882.78,1410.36,4280.00,31656.00,1235.00
576,884.21,1428.73,4471.88,32303.00,1313.00
585,885.64,1447.03,3411.50,31138.00,1235.00
594,887.08,1465.26,10446.03,40592.00,1327.00
603,888.51,1483.43,903.78,27498.00,1292.00
612,889.94,1501.54,194.58,25930.00,1201.00
621,891.37,1519.58,142.67,25306.00,1156.00
630,892.80,1537.56,252.40,24947.00,1222.00
639,894.23,1555.46,0.00,23958.00,1228.00
648,895.66,1573.31,89.90,23542.00,1235.00
657,897.09,1591.09,30.13,22853.00,1211.00
666,898.52,1608.80,348.30,22674.00,1205.00
675,899.95,1626.44,644.13,22483.00,1230.00
684,901.37,1644.02,781.77,22035.00,1249.00
693,902.80,1661.54,968.40,21763.00,1328.00
702,904.22,1678.99,857.78,20842.00,1199.00
711,905.64,1696.37,905.10,20332.00,1279.00
720,907.07,1713.68,680.52,19402.00,1224.00
729,908.49,1730.93,416.37,18468.00,1241.00
738,909.91,1748.12,322.91,17750.00,1252.00
747,911.33,1765.23,0.64,16710.00,1215.00
756,912.75,1782.29,102.14,16298.00,1199.00
765,914.16,1799.27,234.99,15846.00,1218.00
774,915.58,1816.19,240.51,15265.00,1203.00
783,916.99,1833.04,412.76,14971.00,1251.00
792,918.41,1849.83,629.74,14633.00,1266.00
801,919.82,1866.55,676.87,14145.00,1260.00
810,921.23,1883.20,958.99,13902.00,1273.00
819,922.64,1899.79,817.70,13133.00,1194.00
828,924.05,1916.31,893.72,12700.00,1226.00
837,925.46,1932.77,1011.67,12263.00,1222.00
846,926.86,1949.16,763.94,11493.00,1243.00
855,928.27,1965.48,719.93,10900.00,1220.00
864,929.67,1981.74,751.85,10412.00,1237.00
873,931.07,1997.93,400.50,9570.00,1266.00
882,932.47,2014.06,301.85,8924.00,1215.00
891,933.87,2030.12,160.29,8334.00,1266.00
900,935.27,2046.11,0.00,7772.00,1340.00
909,936.66,2062.04,38.40,7343.00,1304.00
918,938.06,2077.91,0.00,6771.00,1226.00
927,939.45,2093.70,0.00,6407.00,1226.00
936,940.84,2109.44,45.39,6137.00,1232.00
945,942.23,2125.10,27.42,5873.00,1271.00
954,943.62,2140.70,56.59,5625.00,1270.00
963,945.00,2156.24,0.00,5232.00,1215.00
972,946.39,2171.71,14.64,5129.00,1226.00
981,947.77,2187.12,21.05,4916.00,1177.00
990,949.15,2202.46,81.53,4882.00,1251.00
999,950.53,2217.73,92.64,4732.00,1192.00
1008,951.90,2232.94,35.50,4571.00,1199.00
1017,953.28,2248.09,159.88,4634.00,1289.00
1026,954.65,2263.17,33.18,4349.00,1205.00
1035,956.02,2278.19,0.06,4237.00,1241.00
1044,957.39,2293.14,0.00,4142.00,1249.00
1053,958.75,2308.03,0.00,4013.00,1218.00
1062,960.12,2322.85,101.67,4009.00,1218.00
1071,961.48,2337.61,125.93,3956.00,1220.00
1080,962.84,2352.31,54.70,3832.00,1243.00
1089,964.20,2366.94,26.81,3758.00,1273.00
1098,965.56,2381.51,161.83,3760.00,1256.00
1107,966.91,2396.01,132.65,3665.00,1249.00
1116,968.26,2410.45,197.29,3635.00,1249.00
1125,969.61,2424.83,160.05,3517.00,1222.00
1134,970.96,2439.14,194.33,3470.00,1220.00
1143,972.30,2453.39,149.49,3388.00,1233.00
1152,973.65,2467.58,330.56,3415.00,1232.00
1161,974.99,2481.70,359.11,3343.00,1205.00
1170,976.33,2495.76,271.43,3265.00,1252.00
1179,977.66,2509.76,68.66,3113.00,1252.00
1188,979.00,2523.70,172.34,3103.00,1260.00
1197,980.33,2537.57,118.47,2959.00,1203.00
1206,981.66,2551.38,43.18,2974.00,1292.00
1215,982.98,2565.13,10.77,2828.00,1233.00
1224,984.31,2578.82,0.00,2779.00,1226.00
1233,985.63,2592.44,18.25,2822.00,1222.00
1242,986.95,2606.01,23.47,2912.00,1311.00
1251,988.27,2619.51,185.85,3022.00,1315.00
1260,989.58,2632.95,449.89,3107.00,1302.00
1269,990.89,2646.33,79.79,2993.00,1374.00
1278,992.20,2659.65,54.12,2900.00,1281.00
1287,993.51,2672.91,209.99,2965.00,1287.00
1296,994.81,2686.10,425.02,3084.00,1304.00
1305,996.12,2699.24,299.11,3028.00,1306.00
1314,997.41,2712.32,776.86,3233.00,1311.00
1323,998.71,2725.33,1820.77,3504.00,1264.00
1332,1000.01,2738.29,772.60,3215.00,1330.00
1341,1001.30,2751.18,330.66,3105.00,1414.00
1350,1002.59,2764.02,31.16,2908.00,1340.00
1359,1003.87,2776.79,80.80,2845.00,1283.00
1368,1005.15,2789.51,0.00,2878.00,1317.00
1377,1006.43,2802.17,54.62,2980.00,1294.00
1386,1007.71,2814.77,195.81,3081.00,1237.00
1395,1008.99,2827.30,128.15,3134.00,1232.00
1404,1010.26,2839.78,0.00,3282.00,1321.00
1413,1011.53,2852.21,0.00,3407.00,1268.00
1422,1012.80,2864.57,4.22,3927.00,1382.00
1431,1014.06,2876.87,3374.76,4897.00,1235.00
1440,1015.32,2889.12,14025.28,7719.00,1332.00
1449,1016.58,2901.31,20697.33,9412.00,1296.00
1458,1017.83,2913.44,43485.82,13021.00,1260.00
1467,1019.09,2925.51,23911.74,9448.00,1300.00
1476,1020.33,2937.53,28332.12,10173.00,1363.00
1485,1021.58,2949.49,16485.76,7677.00,1328.00
1494,1022.82,2961.39,13380.69,6166.00,1292.00
1503,1024.07,2973.23,13921.25,6131.00,1412.00
1512,1025.30,2985.02,17194.77,6342.00,1262.00
1521,1026.54,2996.75,14994.47,5708.00,1317.00
1530,1027.77,3008.43,2969.17,3774.00,1308.00
1539,1029.00,3020.05,1839.53,3215.00,1258.00
1548,1030.22,3031.61,0.00,2331.00,1287.00
1557,1031.45,3043.12,0.00,2194.00,1304.00
1566,1032.67,3054.57,0.00,2031.00,1264.00
1575,1033.88,3065.97,0.00,1915.00,1182.00
1584,1035.10,3077.31,32.11,2019.00,1300.00
1593,1036.31,3088.60,33.59,2023.00,1323.00
1602,1037.52,3099.83,131.32,1976.00,1270.00
1611,1038.72,3111.00,79.99,2052.00,1342.00
1620,1039.92,3122.13,0.00,2052.00,1342.00
1629,1041.12,3133.20,0.00,2118.00,1363.00
1638,1042.32,3144.21,73.83,2107.00,1281.00
1647,1043.51,3155.17,130.69,2230.00,1327.00
1656,1044.70,3166.08,246.81,2359.00,1391.00
1665,1045.88,3176.93,210.16,2414.00,1383.00
1674,1047.07,3187.73,634.20,2388.00,1279.00
1683,1048.24,3198.48,2813.45,2640.00,1364.00
1692,1049.42,3209.17,4460.27,2716.00,1336.00
1701,1050.59,3219.81,5506.55,2737.00,1306.00
1710,1051.76,3230.40,7203.42,2919.00,1385.00
1719,1052.93,3240.94,8413.86,2862.00,1273.00
1728,1054.10,3251.42,9892.45,2969.00,1338.00
1737,1055.26,3261.86,10468.81,2986.00,1357.00
1746,1056.41,3272.24,10340.43,2959.00,1397.00
1755,1057.57,3282.57,10717.32,2938.00,1406.00
1764,1058.72,3292.85,9922.35,2794.00,1361.00
1773,1059.87,3303.07,11113.24,2794.00,1334.00
1782,1061.01,3313.25,11316.11,2737.00,1325.00
1791,1062.15,3323.38,10794.36,2646.00,1304.00
1800,1063.29,3333.45,11258.64,2616.00,1302.00
1809,1064.42,3343.48,11822.49,2612.00,1325.00
1818,1065.55,3353.45,9429.70,2464.00,1309.00
1827,1066.68,3363.38,10086.11,2469.00,1336.00
1836,1067.81,3373.25,8868.49,2295.00,1251.00
1845,1068.93,3383.08,11302.54,2323.00,1235.00
1854,1070.05,3392.85,9327.29,2397.00,1418.00
1863,1071.16,3402.58,7345.66,2196.00,1313.00
1872,1072.27,3412.26,8988.91,2209.00,1311.00
1881,1073.38,3421.89,6217.19,2021.00,1243.00
1890,1074.49,3431.47,5412.50,2012.00,1281.00
1899,1075.59,3441.00,4717.66,1976.00,1292.00
1908,1076.69,3450.49,3228.68,1966.00,1355.00
1917,1077.78,3459.93,2123.39,1818.00,1251.00
1926,1078.87,3469.32,4095.73,1906.00,1321.00
1935,1079.96,3478.66,970.47,1763.00,1287.00
1944,1081.05,3487.95,1051.14,1807.00,1359.00
1953,1082.13,3497.20,2221.82,1756.00,1317.00
1962,1083.21,3506.40,1901.65,1668.00,1266.00
1971,1084.28,3515.56,716.25,1740.00,1393.00
1980,1085.36,3524.67,542.69,1609.00,1294.00
1989,1086.42,3533.73,822.91,1552.00,1256.00
1998,1087.49,3542.74,2684.35,1617.00,1300.00
2007,1088.55,3551.71,1135.01,1526.00,1260.00
2016,1089.61,3560.64,5782.47,1581.00,1251.00
2025,1090.67,3569.52,8157.42,1619.00,1275.00
2034,1091.72,3578.35,2467.80,1425.00,1169.00
2043,1092.77,3587.14,732.64,1397.00,1190.00
2047,1093.23,3591.03,44.23,1332.00,1133.00

File: sunflower oil.csv
ENLIGHTEN Version,4.1.22
Measurement ID,20250220-202058-672760-WP-01977
Serial Number,WP-01977
Model,WP-785X-F13-R-ILC
Detector,S16011-1106
Label,sunflower oil
Declared Match,
Declared Score,0
Scan Averaging,3
Boxcar,0
Technique,Raman
Baseline Correction Algo,AirPLS
ROI Pixel Start,47
ROI Pixel End,2047
ROI Start Line,0
ROI Stop Line,63
CCD C4,1.38617e-12
Slit Width,25
Cropped,True
Interpolated,False
Wavenumber Correction,-0.100481
Raman Intensity Corrected,True
Deconvolved,True
Region,
High Gain Mode,False
Laser Power mW,
Electrical Dark Correction,False
Battery %,
Device ID,<DeviceID USB:0x24aa:0x1000:0:1>
FW Version,10.0.0.10
FPGA Version,035-001
BLE Version,
Prefix,enlighten
Suffix,
Preset,
Auto-Raman,True
Session Count,0
Plugin Name,
Integration Time,368
Timestamp,2025-02-20 20:20:58.6728
Note,
Temperature,0
CCD C0,793.274
CCD C1,0.153259
CCD C2,1.40788e-05
CCD C3,-1.132e-08
CCD Offset,0
CCD Gain,1.9
CCD Offset Odd,0
CCD Gain Odd,1.9
Laser Wavelength,785.032
Laser Enable,False
Laser Power %,0
Laser Temperature,0
Pixel Count,2048

Pixel,Wavelength,Wavenumber,Processed,Raw,Dark
0,793.27,132.25,NA,1038.67,926.33
9,794.65,154.15,NA,1053.67,932.00
18,796.04,176.01,NA,1095.67,952.33
27,797.42,197.83,NA,1132.33,950.67
36,798.81,219.60,NA,1221.33,944.33
45,800.20,241.33,NA,14074.00,955.67
54,801.59,263.02,748.60,15277.67,979.00
63,802.98,284.66,375.94,14645.33,960.67
72,804.38,306.26,52.52,14055.67,952.00
81,805.77,327.82,0.00,13755.33,947.00
90,807.17,349.32,23.80,13737.33,953.33
99,808.57,370.78,260.64,13923.33,960.00
108,809.98,392.19,159.49,13712.67,945.00
117,811.38,413.56,149.94,13591.00,959.00
126,812.79,434.87,153.36,13448.67,955.00
135,814.19,456.14,225.47,13365.00,934.67
144,815.60,477.36,343.45,13404.00,960.33
153,817.01,498.52,261.27,13096.33,955.00
162,818.42,519.64,202.83,12795.33,957.67
171,819.84,540.70,113.39,12391.33,935.33
180,821.25,561.71,5.47,12062.67,935.00
189,822.67,582.67,224.62,12286.33,947.67
198,824.09,603.57,568.79,12602.00,939.33
207,825.50,624.43,94.93,11732.00,953.33
216,826.92,645.22,55.46,11467.67,949.33
225,828.34,665.97,0.00,11175.33,935.33
234,829.77,686.66,29.24,11522.33,1028.33
243,831.19,707.29,410.41,12117.33,965.33
252,832.61,727.87,839.20,12866.67,964.67
261,834.04,748.39,169.38,11901.33,950.00
270,835.47,768.85,190.16,11914.00,937.33
279,836.89,789.26,0.00,11583.67,952.00
288,838.32,809.61,466.73,12676.00,952.67
297,839.75,829.90,2355.23,16093.67,965.33
306,841.18,850.14,3298.72,17896.33,950.67
315,842.61,870.31,3666.09,18548.33,950.00
324,844.04,890.43,2698.92,17194.33,943.67
333,845.47,910.49,2546.47,17052.00,940.00
342,846.90,930.49,1752.41,16035.67,955.00
351,848.33,950.43,1910.45,16410.33,954.00
360,849.77,970.31,3060.17,18223.33,944.33
369,851.20,990.12,404.36,14240.67,954.00
378,852.63,1009.88,645.98,14554.33,958.00
387,854.07,1029.58,1245.98,15455.67,941.67
396,855.50,1049.21,1539.89,15990.00,943.67
405,856.94,1068.79,4469.44,20718.00,952.67
414,858.37,1088.30,4506.35,20540.33,931.67
423,859.81,1107.75,2266.85,16780.00,958.33
432,861.25,1127.14,672.80,14060.00,953.00
441,862.68,1146.46,0.00,12724.00,939.00
450,864.12,1165.73,0.00,12673.00,944.33
459,865.55,1184.93,0.01,13024.67,924.67
468,866.99,1204.06,2.16,13493.33,940.00
477,868.43,1223.14,527.86,14684.00,936.67
486,869.86,1242.15,2311.44,18072.00,948.33
495,871.30,1261.10,8549.31,27930.00,943.00
504,872.73,1279.98,6356.73,25058.33,941.00
513,874.17,1298.80,10123.31,30416.33,947.00
522,875.60,1317.55,5109.69,23414.67,941.00
531,877.04,1336.24,1555.73,17850.00,933.67
540,878.47,1354.87,1202.26,17368.00,934.67
549,879.91,1373.43,840.37,16928.00,942.67
558,881.34,1391.93,271.82,16242.00,924.67
567,882.78,1410.36,1327.47,17622.00,938.33
576,884.21,1428.73,6976.69,26983.67,960.67
585,885.64,1447.03,15208.92,38299.33,936.33
594,887.08,1465.26,7258.17,25471.33,951.33
603,888.51,1483.43,1222.57,15872.67,940.33
612,889.94,1501.54,223.28,13882.67,918.00
621,891.37,1519.58,0.90,13056.33,916.67
630,892.80,1537.56,25.50,12624.67,934.33
639,894.23,1555.46,0.00,12086.00,928.67
648,895.66,1573.31,27.46,11912.33,930.33
657,897.09,1591.09,0.40,11681.67,931.33
666,898.52,1608.80,119.19,11736.00,929.33
675,899.95,1626.44,1394.47,13328.00,930.33
684,901.37,1644.02,5464.00,19794.33,932.33
693,902.80,1661.54,16859.94,32877.33,950.00
702,904.22,1678.99,928.10,12072.67,923.67
711,905.64,1696.37,128.56,10568.67,945.00
720,907.07,1713.68,2.49,10081.33,929.00
729,908.49,1730.93,689.01,10751.67,927.33
738,909.91,1748.12,3228.36,13309.33,935.33
747,911.33,1765.23,282.67,9440.33,928.67
756,912.75,1782.29,2.38,8605.67,926.67
765,914.16,1799.27,76.99,8374.00,936.00
774,915.58,1816.19,4.24,8006.33,924.00
783,916.99,1833.04,67.47,7854.67,938.00
792,918.41,1849.83,64.87,7601.00,937.33
801,919.82,1866.55,109.82,7411.00,933.33
810,921.23,1883.20,188.75,7257.00,937.33
819,922.64,1899.79,137.61,6939.67,923.67
828,924.05,1916.31,144.52,6717.67,934.00
837,925.46,1932.77,172.52,6510.33,934.67
846,926.86,1949.16,92.34,6194.00,938.00
855,928.27,1965.48,76.49,5935.33,920.00
864,929.67,1981.74,51.26,5699.67,934.00
873,931.07,1997.93,3.88,5437.67,943.67
882,932.47,2014.06,51.02,5257.33,925.33
891,933.87,2030.12,13.74,5039.33,937.67
900,935.27,2046.11,15.51,4874.00,953.00
909,936.66,2062.04,49.85,4748.00,944.33
918,938.06,2077.91,7.15,4557.67,927.33
927,939.45,2093.70,0.00,4428.67,938.00
936,940.84,2109.44,14.08,4335.00,931.67
945,942.23,2125.10,61.82,4287.00,939.00
954,943.62,2140.70,0.26,4140.33,933.67
963,945.00,2156.24,51.57,4104.00,924.00
972,946.39,2171.71,72.81,4053.67,931.67
981,947.77,2187.12,189.15,4052.67,917.33
990,949.15,2202.46,121.48,3932.33,931.67
999,950.53,2217.73,128.58,3847.00,920.67
1008,951.90,2232.94,98.32,3746.00,924.00
1017,953.28,2248.09,113.22,3692.33,940.33
1026,954.65,2263.17,38.11,3547.00,926.33
1035,956.02,2278.19,12.23,3462.33,934.00
1044,957.39,2293.14,34.57,3402.67,933.67
1053,958.75,2308.03,23.40,3320.00,928.67
1062,960.12,2322.85,40.93,3256.67,927.33
1071,961.48,2337.61,39.30,3195.33,926.67
1080,962.84,2352.31,16.86,3129.00,930.00
1089,964.20,2366.94,5.23,3067.33,935.00
1098,965.56,2381.51,22.15,3025.00,930.67
1107,966.91,2396.01,24.65,2988.33,941.67
1116,968.26,2410.45,13.09,2922.67,930.00
1125,969.61,2424.83,92.16,2922.00,927.33
1134,970.96,2439.14,100.58,2881.33,933.67
1143,972.30,2453.39,35.93,2780.33,924.67
1152,973.65,2467.58,8.93,2720.67,928.00
1161,974.99,2481.70,0.00,2661.67,927.33
1170,976.33,2495.76,13.21,2661.67,936.00
1179,977.66,2509.76,0.00,2618.67,932.33
1188,979.00,2523.70,14.71,2666.00,943.00
1197,980.33,2537.57,50.21,2668.00,920.33
1206,981.66,2551.38,21.76,2680.67,942.33
1215,982.98,2565.13,25.58,2670.00,926.67
1224,984.31,2578.82,14.87,2689.33,924.00
1233,985.63,2592.44,149.75,2781.33,929.33
1242,986.95,2606.01,119.81,2809.67,950.67
1251,988.27,2619.51,72.90,2795.33,945.67
1260,989.58,2632.95,219.66,2846.00,938.33
1269,990.89,2646.33,207.40,2872.33,968.00
1278,992.20,2659.65,482.61,2943.67,935.00
1287,993.51,2672.91,844.15,3085.33,940.67
1296,994.81,2686.10,1076.75,3168.00,944.33
1305,996.12,2699.24,1143.73,3213.33,953.33
1314,997.41,2712.32,2357.37,3652.67,955.67
1323,998.71,2725.33,3317.14,3938.67,935.33
1332,1000.01,2738.29,1987.92,3429.00,951.33
1341,1001.30,2751.18,369.91,2810.00,971.00
1350,1002.59,2764.02,0.00,2599.00,955.33
1359,1003.87,2776.79,0.00,2633.33,944.33
1368,1005.15,2789.51,0.00,2869.00,949.33
1377,1006.43,2802.17,0.00,3139.67,946.33
1386,1007.71,2814.77,308.42,3752.33,931.33
1395,1008.99,2827.30,6172.57,5625.00,943.00
1404,1010.26,2839.78,21953.35,10911.00,954.33
1413,1011.53,2852.21,68314.27,22312.67,946.33
1422,1012.80,2864.57,55632.68,19722.33,959.67
1431,1014.06,2876.87,58871.83,19716.67,933.00
1440,1015.32,2889.12,66887.24,21180.33,962.00
1449,1016.58,2901.31,68876.43,21185.33,949.33
1458,1017.83,2913.44,66525.66,20036.00,941.33
1467,1019.09,2925.51,62951.60,18615.67,955.33
1476,1020.33,2937.53,55728.35,16159.67,966.67
1485,1021.58,2949.49,32270.09,11019.33,952.00
1494,1022.82,2961.39,24998.16,8862.33,943.00
1503,1024.07,2973.23,12256.18,6221.00,974.00
1512,1025.30,2985.02,4114.94,4489.33,932.67
1521,1026.54,2996.75,4844.10,4381.00,950.00
1530,1027.77,3008.43,16873.00,5875.67,951.33
1539,1029.00,3020.05,9071.60,4357.00,933.00
1548,1030.22,3031.61,1232.84,2665.33,934.33
1557,1031.45,3043.12,0.00,2113.00,945.00
1566,1032.67,3054.57,0.00,1874.00,936.00
1575,1033.88,3065.97,103.39,1759.33,913.33
1584,1035.10,3077.31,68.15,1661.33,943.67
1593,1036.31,3088.60,0.00,1540.33,954.67
1602,1037.52,3099.83,0.00,1458.33,938.67
1611,1038.72,3111.00,0.00,1438.33,951.67
1620,1039.92,3122.13,14.33,1406.33,950.33
1629,1041.12,3133.20,27.47,1392.67,958.67
1638,1042.32,3144.21,143.23,1364.33,934.33
1647,1043.51,3155.17,13.48,1360.67,944.33
1656,1044.70,3166.08,189.60,1388.33,960.00
1665,1045.88,3176.93,124.76,1376.00,958.00
1674,1047.07,3187.73,110.29,1354.33,941.67
1683,1048.24,3198.48,777.42,1405.00,954.33
1692,1049.42,3209.17,921.27,1406.00,956.67
1701,1050.59,3219.81,1431.98,1419.00,946.67
1710,1051.76,3230.40,2050.05,1458.67,955.67
1719,1052.93,3240.94,2179.07,1426.33,933.00
1728,1054.10,3251.42,2765.19,1467.67,956.33
1737,1055.26,3261.86,3016.59,1472.67,960.67
1746,1056.41,3272.24,3590.21,1486.00,965.33
1755,1057.57,3282.57,3395.18,1465.67,971.67
1764,1058.72,3292.85,3749.05,1445.33,956.00
1773,1059.87,3303.07,3427.46,1396.00,943.00
1782,1061.01,3313.25,3675.30,1394.33,951.67
1791,1062.15,3323.38,3373.32,1352.33,945.00
1800,1063.29,3333.45,3452.45,1338.67,947.67
1809,1064.42,3343.48,2913.89,1306.67,953.33
1818,1065.55,3353.45,3012.53,1285.00,947.67
1827,1066.68,3363.38,2857.47,1268.00,950.67
1836,1067.81,3373.25,2952.74,1241.00,933.33
1845,1068.93,3383.08,2901.18,1218.00,930.00
1854,1070.05,3392.85,2409.39,1233.00,971.67
1863,1071.16,3402.58,2628.74,1203.00,945.00
1872,1072.27,3412.26,2376.35,1183.33,947.33
1881,1073.38,3421.89,2155.11,1146.67,930.33
1890,1074.49,3431.47,1931.98,1144.00,941.00
1899,1075.59,3441.00,2115.82,1134.00,938.67
1908,1076.69,3450.49,2109.47,1144.33,954.33
1917,1077.78,3459.93,1675.63,1105.67,938.33
1926,1078.87,3469.32,1513.20,1103.33,948.67
1935,1079.96,3478.66,996.12,1080.67,943.67
1944,1081.05,3487.95,1074.19,1090.00,958.33
1953,1082.13,3497.20,1424.22,1086.67,953.67
1962,1083.21,3506.40,772.04,1051.33,936.67
1971,1084.28,3515.56,940.32,1078.00,966.67
1980,1085.36,3524.67,535.47,1048.33,948.00
1989,1086.42,3533.73,328.69,1029.33,939.33
1998,1087.49,3542.74,418.99,1035.67,948.67
2007,1088.55,3551.71,1040.98,1021.00,931.33
2016,1089.61,3560.64,17.87,1011.00,941.67
2025,1090.67,3569.52,248.60,1012.67,942.67
2034,1091.72,3578.35,554.69,987.00,918.00
2043,1092.77,3587.14,577.47,979.67,915.00
2047,1093.23,3591.03,14.56,968.67,910.67