Folder: ENLIGHTEN/enlighten/plugins/Raman/MatchingLibrary/785X (part 9)

File: vinyl acetate.csv
ENLIGHTEN Version,4.1.22
Measurement ID,20250220-201055-517587-WP-01977
Serial Number,WP-01977
Model,WP-785X-F13-R-ILC
Detector,S16011-1106
Label,vinyl acetate
Declared Match,
Declared Score,0
Scan Averaging,6
Boxcar,0
Technique,Raman
Baseline Correction Algo,AirPLS
ROI Pixel Start,47
ROI Pixel End,2047
ROI Start Line,0
ROI Stop Line,63
CCD C4,1.38617e-12
Slit Width,25
Cropped,True
Interpolated,False
Wavenumber Correction,-0.100481
Raman Intensity Corrected,True
Deconvolved,True
Region,
High Gain Mode,False
Laser Power mW,
Electrical Dark Correction,False
Battery %,
Device ID,<DeviceID USB:0x24aa:0x1000:0:1>
FW Version,10.0.0.10
FPGA Version,035-001
BLE Version,
Prefix,enlighten
Suffix,
Preset,
Auto-Raman,True
Session Count,0
Plugin Name,
Integration Time,193
Timestamp,2025-02-20 20:10:55.5176
Note,
Temperature,0
CCD C0,793.274
CCD C1,0.153259
CCD C2,1.40788e-05
CCD C3,-1.132e-08
CCD Offset,0
CCD Gain,1.9
CCD Offset Odd,0
CCD Gain Odd,1.9
Laser Wavelength,785.032
Laser Enable,False
Laser Power %,0
Laser Temperature,0
Pixel Count,2048

Pixel,Wavelength,Wavenumber,Processed,Raw,Dark
0,793.27,132.25,NA,905.67,883.17
9,794.65,154.15,NA,913.83,890.83
18,796.04,176.01,NA,927.33,894.17
27,797.42,197.83,NA,935.67,897.33
36,798.81,219.60,NA,958.33,895.17
45,800.20,241.33,NA,5329.33,894.00
54,801.59,263.02,371.03,3784.33,908.50
63,802.98,284.66,0.00,2565.50,899.33
72,804.38,306.26,0.00,2083.83,903.33
81,805.77,327.82,0.00,1869.00,894.67
90,807.17,349.32,0.00,1771.33,902.00
99,808.57,370.78,84.02,1864.33,900.00
108,809.98,392.19,715.34,2993.50,898.33
117,811.38,413.56,5548.44,10130.17,901.67
126,812.79,434.87,333.52,2120.83,897.50
135,814.19,456.14,1855.33,4693.00,891.17
144,815.60,477.36,661.01,2708.17,899.50
153,817.01,498.52,82.94,1577.33,900.50
162,818.42,519.64,2.50,1405.00,904.17
171,819.84,540.70,0.00,1312.00,889.67
180,821.25,561.71,0.00,1339.50,886.67
189,822.67,582.67,125.47,1601.17,886.67
198,824.09,603.57,375.93,2056.17,891.50
207,825.50,624.43,2159.33,5395.17,904.67
216,826.92,645.22,4772.79,9542.00,899.67
225,828.34,665.97,725.67,2744.33,887.67
234,829.77,686.66,445.21,2346.17,937.33
243,831.19,707.29,1231.55,3553.50,906.50
252,832.61,727.87,379.08,2289.17,899.83
261,834.04,748.39,72.65,1764.33,894.67
270,835.47,768.85,1.67,1661.33,886.83
279,836.89,789.26,0.54,1663.17,892.00
288,838.32,809.61,31.36,1710.83,893.00
297,839.75,829.90,306.82,2224.50,898.33
306,841.18,850.14,5424.29,9458.00,895.17
315,842.61,870.31,1891.65,4818.50,895.50
324,844.04,890.43,1266.71,3810.33,892.83
333,845.47,910.49,176.21,1925.00,891.83
342,846.90,930.49,110.34,1803.50,898.50
351,848.33,950.43,825.50,2903.83,896.17
360,849.77,970.31,1913.37,5395.83,894.67
369,851.20,990.12,543.84,2837.00,895.17
378,852.63,1009.88,128.90,1796.00,904.83
387,854.07,1029.58,122.47,1755.83,893.67
396,855.50,1049.21,37.06,1579.00,892.67
405,856.94,1068.79,0.00,1503.83,896.50
414,858.37,1088.30,0.00,1500.17,887.67
423,859.81,1107.75,41.01,1682.33,897.67
432,861.25,1127.14,622.46,2876.17,897.83
441,862.68,1146.46,1233.62,3884.67,893.83
450,864.12,1165.73,12.25,1905.67,891.83
459,865.55,1184.93,50.21,2015.33,884.00
468,866.99,1204.06,557.89,2988.17,895.00
477,868.43,1223.14,1341.54,4217.33,893.00
486,869.86,1242.15,394.82,2796.17,893.83
495,871.30,1261.10,482.23,2968.67,891.00
504,872.73,1279.98,2293.47,6603.17,892.00
513,874.17,1298.80,17437.88,28062.33,895.00
522,875.60,1317.55,1696.70,5238.17,894.83
531,877.04,1336.24,736.98,3544.00,883.50
540,878.47,1354.87,863.26,3863.33,891.83
549,879.91,1373.43,4714.32,9215.83,892.33
558,881.34,1391.93,3664.90,8015.33,880.83
567,882.78,1410.36,1299.13,4604.17,887.33
576,884.21,1428.73,1834.92,5417.00,894.33
585,885.64,1447.03,1382.94,4771.00,889.33
594,887.08,1465.26,596.17,3623.17,898.00
603,888.51,1483.43,354.07,3263.00,894.83
612,889.94,1501.54,155.56,3001.67,883.67
621,891.37,1519.58,58.16,2882.00,877.83
630,892.80,1537.56,17.56,2798.33,884.17
639,894.23,1555.46,0.00,2695.50,887.00
648,895.66,1573.31,82.73,2763.17,886.00
657,897.09,1591.09,183.23,2843.50,886.17
666,898.52,1608.80,234.72,2887.17,882.67
675,899.95,1626.44,1169.15,4070.83,886.33
684,901.37,1644.02,17434.56,28461.50,890.00
693,902.80,1661.54,1318.84,5239.83,897.33
702,904.22,1678.99,262.87,2650.17,882.83
711,905.64,1696.37,252.41,2555.67,895.33
720,907.07,1713.68,217.99,2476.00,888.67
729,908.49,1730.93,478.81,2769.33,890.67
738,909.91,1748.12,3307.68,7047.50,886.67
747,911.33,1765.23,5270.55,9091.67,887.67
756,912.75,1782.29,681.38,2904.17,886.00
765,914.16,1799.27,77.09,1962.67,882.83
774,915.58,1816.19,0.88,1804.83,885.33
783,916.99,1833.04,37.40,1778.50,887.50
792,918.41,1849.83,5.93,1674.50,890.17
801,919.82,1866.55,0.00,1599.83,885.83
810,921.23,1883.20,2.81,1561.00,893.50
819,922.64,1899.79,1.90,1503.67,883.50
828,924.05,1916.31,0.00,1459.33,885.00
837,925.46,1932.77,15.00,1437.67,883.83
846,926.86,1949.16,50.57,1442.67,889.50
855,928.27,1965.48,34.88,1385.83,882.17
864,929.67,1981.74,79.56,1396.17,888.17
873,931.07,1997.93,31.61,1316.00,890.67
882,932.47,2014.06,8.28,1249.00,887.33
891,933.87,2030.12,1.86,1207.67,886.67
900,935.27,2046.11,4.23,1194.67,896.67
909,936.66,2062.04,0.17,1158.17,894.67
918,938.06,2077.91,7.08,1127.67,883.00
927,939.45,2093.70,26.24,1130.67,888.67
936,940.84,2109.44,79.50,1157.83,887.00
945,942.23,2125.10,15.89,1083.67,890.33
954,943.62,2140.70,0.00,1045.17,891.50
963,945.00,2156.24,6.93,1033.50,884.17
972,946.39,2171.71,0.86,1016.67,884.67
981,947.77,2187.12,3.19,1002.00,878.00
990,949.15,2202.46,8.53,1011.00,888.33
999,950.53,2217.73,28.44,1023.67,883.67
1008,951.90,2232.94,64.59,1051.83,885.33
1017,953.28,2248.09,67.13,1062.33,893.17
1026,954.65,2263.17,172.49,1134.00,883.33
1035,956.02,2278.19,155.72,1119.83,888.67
1044,957.39,2293.14,37.66,1021.50,888.00
1053,958.75,2308.03,0.00,984.17,887.33
1062,960.12,2322.85,18.44,991.67,881.83
1071,961.48,2337.61,21.77,995.17,885.00
1080,962.84,2352.31,59.03,1023.17,889.00
1089,964.20,2366.94,61.85,1022.50,890.00
1098,965.56,2381.51,38.78,1007.67,892.67
1107,966.91,2396.01,64.37,1021.17,889.67
1116,968.26,2410.45,92.45,1036.17,886.67
1125,969.61,2424.83,93.41,1026.83,881.00
1134,970.96,2439.14,84.73,1017.83,882.67
1143,972.30,2453.39,57.20,1003.67,889.00
1152,973.65,2467.58,56.19,996.50,884.67
1161,974.99,2481.70,50.57,995.83,889.50
1170,976.33,2495.76,56.80,995.83,888.00
1179,977.66,2509.76,39.84,991.00,895.33
1188,979.00,2523.70,41.84,987.83,893.83
1197,980.33,2537.57,15.05,958.50,882.17
1206,981.66,2551.38,0.00,959.83,894.50
1215,982.98,2565.13,6.48,956.50,888.00
1224,984.31,2578.82,37.14,973.83,887.00
1233,985.63,2592.44,54.39,984.83,890.17
1242,986.95,2606.01,55.28,990.83,895.67
1251,988.27,2619.51,76.67,996.00,892.50
1260,989.58,2632.95,16.72,972.50,894.00
1269,990.89,2646.33,0.00,972.83,904.67
1278,992.20,2659.65,0.00,964.83,894.83
1287,993.51,2672.91,0.00,970.83,898.00
1296,994.81,2686.10,0.00,970.17,894.00
1305,996.12,2699.24,35.72,999.17,895.17
1314,997.41,2712.32,225.52,1097.83,900.67
1323,998.71,2725.33,741.63,1271.17,896.17
1332,1000.01,2738.29,339.15,1149.33,903.17
1341,1001.30,2751.18,130.38,1077.17,910.17
1350,1002.59,2764.02,98.74,1063.67,904.00
1359,1003.87,2776.79,174.97,1083.00,896.83
1368,1005.15,2789.51,59.73,1052.17,896.83
1377,1006.43,2802.17,0.00,1026.83,893.83
1386,1007.71,2814.77,0.00,1038.17,885.00
1395,1008.99,2827.30,0.00,1083.00,895.67
1404,1010.26,2839.78,298.24,1261.67,899.67
1413,1011.53,2852.21,716.72,1414.50,894.67
1422,1012.80,2864.57,190.74,1344.83,904.00
1431,1014.06,2876.87,0.00,1320.17,888.00
1440,1015.32,2889.12,0.00,1399.67,900.83
1449,1016.58,2901.31,341.95,1550.00,897.33
1458,1017.83,2913.44,2079.00,1949.00,886.00
1467,1019.09,2925.51,6295.62,3027.17,898.33
1476,1020.33,2937.53,25363.04,6902.50,906.33
1485,1021.58,2949.49,16425.66,5206.83,899.33
1494,1022.82,2961.39,5513.91,2582.83,900.17
1503,1024.07,2973.23,3577.40,2091.67,907.50
1512,1025.30,2985.02,4089.11,2141.00,892.67
1521,1026.54,2996.75,8500.77,2771.83,899.83
1530,1027.77,3008.43,4352.22,2143.50,897.83
1539,1029.00,3020.05,4427.12,2032.00,890.17
1548,1030.22,3031.61,5543.74,2220.17,895.33
1557,1031.45,3043.12,12912.29,3315.83,894.67
1566,1032.67,3054.57,11483.71,3049.67,890.67
1575,1033.88,3065.97,4460.22,1884.50,881.17
1584,1035.10,3077.31,2829.33,1609.67,899.67
1593,1036.31,3088.60,3493.29,1668.67,895.17
1602,1037.52,3099.83,4041.37,1688.67,895.67
1611,1038.72,3111.00,2878.95,1552.50,900.50
1620,1039.92,3122.13,6877.74,1914.67,899.33
1629,1041.12,3133.20,3518.53,1577.67,903.00
1638,1042.32,3144.21,1246.82,1254.83,891.83
1647,1043.51,3155.17,388.50,1146.17,898.17
1656,1044.70,3166.08,26.02,1099.33,908.00
1665,1045.88,3176.93,0.00,1063.67,907.83
1674,1047.07,3187.73,0.00,1028.67,892.17
1683,1048.24,3198.48,14.94,1036.33,905.33
1692,1049.42,3209.17,46.31,1024.83,901.17
1701,1050.59,3219.81,77.98,1015.50,896.50
1710,1051.76,3230.40,243.01,1027.00,903.00
1719,1052.93,3240.94,215.90,1005.33,890.17
1728,1054.10,3251.42,202.25,1009.83,900.67
1737,1055.26,3261.86,403.48,1015.50,897.83
1746,1056.41,3272.24,259.09,1011.00,908.00
1755,1057.57,3282.57,695.40,1032.33,909.67
1764,1058.72,3292.85,485.33,1009.83,904.00
1773,1059.87,3303.07,369.52,991.50,899.50
1782,1061.01,3313.25,371.82,985.17,899.67
1791,1062.15,3323.38,410.78,976.83,894.00
1800,1063.29,3333.45,291.67,969.17,896.67
1809,1064.42,3343.48,234.54,968.17,902.00
1818,1065.55,3353.45,373.88,964.67,896.83
1827,1066.68,3363.38,254.26,958.50,899.33
1836,1067.81,3373.25,322.37,948.00,889.67
1845,1068.93,3383.08,294.91,942.00,888.67
1854,1070.05,3392.85,416.03,964.33,909.50
1863,1071.16,3402.58,144.27,941.67,899.33
1872,1072.27,3412.26,475.91,946.17,897.50
1881,1073.38,3421.89,276.32,927.33,885.50
1890,1074.49,3431.47,408.47,935.17,892.50
1899,1075.59,3441.00,418.13,934.83,894.33
1908,1076.69,3450.49,380.31,937.67,901.67
1917,1077.78,3459.93,342.06,923.00,889.17
1926,1078.87,3469.32,341.09,932.50,901.00
1935,1079.96,3478.66,161.30,923.17,897.83
1944,1081.05,3487.95,503.49,930.17,898.17
1953,1082.13,3497.20,53.70,922.17,902.67
1962,1083.21,3506.40,557.68,920.33,891.50
1971,1084.28,3515.56,348.42,930.67,906.50
1980,1085.36,3524.67,667.10,923.33,897.00
1989,1086.42,3533.73,268.98,908.67,890.00
1998,1087.49,3542.74,330.26,914.33,895.83
2007,1088.55,3551.71,626.92,912.83,890.00
2016,1089.61,3560.64,356.69,907.67,888.17
2025,1090.67,3569.52,253.68,907.83,891.33
2034,1091.72,3578.35,148.12,895.67,881.67
2043,1092.77,3587.14,454.55,895.50,877.83
2047,1093.23,3591.03,21.11,892.50,878.83