Folder: ENLIGHTEN/enlighten/plugins/Raman/MatchingLibrary/785X (part 2)

File: cyclohexane.csv
ENLIGHTEN Version,4.1.22
Measurement ID,20250220-200742-199801-WP-01977
Serial Number,WP-01977
Model,WP-785X-F13-R-ILC
Detector,S16011-1106
Label,cyclohexane
Declared Match,
Declared Score,0
Scan Averaging,9
Boxcar,0
Technique,Raman
Baseline Correction Algo,AirPLS
ROI Pixel Start,47
ROI Pixel End,2047
ROI Start Line,0
ROI Stop Line,63
CCD C4,1.38617e-12
Slit Width,25
Cropped,True
Interpolated,False
Wavenumber Correction,-0.100481
Raman Intensity Corrected,True
Deconvolved,True
Region,
High Gain Mode,False
Laser Power mW,
Electrical Dark Correction,False
Battery %,
Device ID,<DeviceID USB:0x24aa:0x1000:0:1>
FW Version,10.0.0.10
FPGA Version,035-001
BLE Version,
Prefix,enlighten
Suffix,
Preset,
Auto-Raman,True
Session Count,0
Plugin Name,
Integration Time,113
Timestamp,2025-02-20 20:07:42.1998
Note,
Temperature,0
CCD C0,793.274
CCD C1,0.153259
CCD C2,1.40788e-05
CCD C3,-1.132e-08
CCD Offset,0
CCD Gain,1.9
CCD Offset Odd,0
CCD Gain Odd,1.9
Laser Wavelength,785.032
Laser Enable,False
Laser Power %,0
Laser Temperature,0
Pixel Count,2048

Pixel,Wavelength,Wavenumber,Processed,Raw,Dark
0,793.27,132.25,NA,872.22,867.00
9,794.65,154.15,NA,874.33,869.33
18,796.04,176.01,NA,879.33,871.22
27,797.42,197.83,NA,885.11,875.56
36,798.81,219.60,NA,879.78,869.89
45,800.20,241.33,NA,1059.11,871.67
54,801.59,263.02,11.19,1062.00,877.56
63,802.98,284.66,6.14,1045.11,876.67
72,804.38,306.26,0.00,1028.33,877.44
81,805.77,327.82,12.48,1045.67,875.11
90,807.17,349.32,51.03,1096.22,873.89
99,808.57,370.78,308.97,1510.00,874.78
108,809.98,392.19,568.40,1905.22,871.11
117,811.38,413.56,394.16,1675.33,875.56
126,812.79,434.87,742.61,2200.56,873.67
135,814.19,456.14,154.93,1241.22,870.44
144,815.60,477.36,208.17,1302.00,875.44
153,817.01,498.52,66.37,1102.56,875.78
162,818.42,519.64,51.20,1072.22,877.22
171,819.84,540.70,19.69,1012.56,869.78
180,821.25,561.71,2.78,980.00,869.44
189,822.67,582.67,0.00,967.78,869.22
198,824.09,603.57,11.26,981.78,869.33
207,825.50,624.43,17.48,995.44,873.78
216,826.92,645.22,0.95,973.22,874.11
225,828.34,665.97,1.46,970.33,868.78
234,829.77,686.66,0.24,987.33,883.00
243,831.19,707.29,0.00,991.33,876.67
252,832.61,727.87,12.46,1039.89,877.44
261,834.04,748.39,84.06,1171.33,871.89
270,835.47,768.85,372.37,1676.56,869.44
279,836.89,789.26,1571.12,5222.33,871.44
288,838.32,809.61,3970.56,12948.22,873.11
297,839.75,829.90,277.46,1572.00,879.67
306,841.18,850.14,184.31,1375.44,872.44
315,842.61,870.31,34.44,1148.22,870.22
324,844.04,890.43,13.97,1117.89,872.33
333,845.47,910.49,39.93,1151.11,871.67
342,846.90,930.49,0.15,1074.22,870.56
351,848.33,950.43,0.00,1074.56,873.89
360,849.77,970.31,48.21,1182.33,869.44
369,851.20,990.12,267.74,1591.89,874.11
378,852.63,1009.88,1338.01,3609.67,878.89
387,854.07,1029.58,9951.37,16087.89,873.44
396,855.50,1049.21,1215.06,3342.89,870.78
405,856.94,1068.79,315.31,1734.89,872.22
414,858.37,1088.30,133.17,1425.78,866.33
423,859.81,1107.75,124.87,1428.89,877.56
432,861.25,1127.14,59.13,1347.44,875.44
441,862.68,1146.46,247.85,1839.44,871.67
450,864.12,1165.73,359.92,2284.89,873.22
459,865.55,1184.93,0.10,1277.78,864.44
468,866.99,1204.06,17.34,1347.89,871.11
477,868.43,1223.14,157.58,1595.22,869.33
486,869.86,1242.15,720.87,2588.56,873.44
495,871.30,1261.10,5846.94,11040.78,867.67
504,872.73,1279.98,2309.39,5608.22,874.44
513,874.17,1298.80,630.84,2455.11,872.11
522,875.60,1317.55,433.18,2130.11,872.56
531,877.04,1336.24,806.81,2815.33,869.44
540,878.47,1354.87,1151.72,3313.89,870.11
549,879.91,1373.43,341.69,2028.22,871.78
558,881.34,1391.93,342.64,2022.33,864.78
567,882.78,1410.36,655.19,2569.22,868.33
576,884.21,1428.73,2566.24,5653.56,876.56
585,885.64,1447.03,8427.59,13380.00,869.00
594,887.08,1465.26,2008.82,4508.78,873.89
603,888.51,1483.43,691.52,2597.11,872.22
612,889.94,1501.54,236.12,1937.78,867.00
621,891.37,1519.58,58.01,1671.33,863.11
630,892.80,1537.56,54.99,1642.44,867.00
639,894.23,1555.46,0.02,1538.44,867.00
648,895.66,1573.31,42.88,1561.11,869.56
657,897.09,1591.09,3.32,1472.89,866.56
666,898.52,1608.80,0.78,1435.89,865.44
675,899.95,1626.44,11.42,1430.22,869.22
684,901.37,1644.02,12.81,1416.67,872.56
693,902.80,1661.54,27.86,1420.33,874.22
702,904.22,1678.99,60.63,1441.22,866.78
711,905.64,1696.37,91.35,1460.78,871.78
720,907.07,1713.68,29.16,1361.11,870.78
729,908.49,1730.93,14.69,1317.33,869.22
738,909.91,1748.12,5.06,1283.56,867.00
747,911.33,1765.23,19.22,1276.00,868.11
756,912.75,1782.29,0.00,1235.44,867.89
765,914.16,1799.27,1.64,1223.56,869.11
774,915.58,1816.19,17.86,1224.67,865.89
783,916.99,1833.04,28.95,1223.56,869.67
792,918.41,1849.83,46.16,1226.67,871.22
801,919.82,1866.55,45.48,1208.33,867.67
810,921.23,1883.20,32.61,1179.56,872.22
819,922.64,1899.79,21.81,1147.44,868.78
828,924.05,1916.31,23.63,1132.67,866.44
837,925.46,1932.77,35.30,1132.89,869.22
846,926.86,1949.16,52.97,1139.44,868.00
855,928.27,1965.48,59.69,1135.56,867.67
864,929.67,1981.74,59.79,1117.00,868.22
873,931.07,1997.93,12.02,1051.44,871.56
882,932.47,2014.06,5.01,1025.00,867.00
891,933.87,2030.12,1.94,1007.33,865.89
900,935.27,2046.11,30.05,1035.89,874.00
909,936.66,2062.04,11.25,1005.22,873.44
918,938.06,2077.91,6.29,976.78,866.33
927,939.45,2093.70,1.29,966.56,869.22
936,940.84,2109.44,18.19,983.33,869.67
945,942.23,2125.10,25.90,989.56,868.56
954,943.62,2140.70,7.71,966.56,868.33
963,945.00,2156.24,58.82,1010.11,867.89
972,946.39,2171.71,29.50,987.56,868.11
981,947.77,2187.12,14.19,968.00,866.33
990,949.15,2202.46,70.85,1017.67,870.56
999,950.53,2217.73,126.55,1063.67,865.67
1008,951.90,2232.94,137.39,1065.22,865.22
1017,953.28,2248.09,117.91,1045.11,871.00
1026,954.65,2263.17,40.61,976.22,864.78
1035,956.02,2278.19,0.02,944.11,869.67
1044,957.39,2293.14,32.26,960.78,869.00
1053,958.75,2308.03,19.80,959.78,869.67
1062,960.12,2322.85,52.59,980.44,867.67
1071,961.48,2337.61,88.88,1018.22,868.11
1080,962.84,2352.31,257.19,1118.00,867.22
1089,964.20,2366.94,142.22,1046.11,872.67
1098,965.56,2381.51,36.97,973.22,871.11
1107,966.91,2396.01,4.16,943.33,871.00
1116,968.26,2410.45,0.00,938.11,869.44
1125,969.61,2424.83,21.21,957.33,865.67
1134,970.96,2439.14,85.50,1002.11,867.11
1143,972.30,2453.39,220.19,1089.67,869.89
1152,973.65,2467.58,107.91,1032.89,870.33
1161,974.99,2481.70,46.31,986.00,869.67
1170,976.33,2495.76,16.05,977.22,874.56
1179,977.66,2509.76,56.48,994.11,869.44
1188,979.00,2523.70,95.05,1032.11,874.78
1197,980.33,2537.57,43.25,998.56,864.89
1206,981.66,2551.38,0.00,972.56,877.33
1215,982.98,2565.13,29.35,991.89,868.78
1224,984.31,2578.82,295.58,1115.00,870.33
1233,985.63,2592.44,259.07,1126.00,871.44
1242,986.95,2606.01,529.05,1241.56,878.67
1251,988.27,2619.51,304.22,1147.89,874.11
1260,989.58,2632.95,1691.49,1617.56,876.44
1269,990.89,2646.33,378.59,1202.33,879.11
1278,992.20,2659.65,2121.83,1983.67,875.78
1287,993.51,2672.91,1516.51,1750.22,875.22
1296,994.81,2686.10,1237.17,1520.44,875.11
1305,996.12,2699.24,1857.49,1667.78,871.89
1314,997.41,2712.32,270.79,1112.78,876.78
1323,998.71,2725.33,65.73,1013.67,872.00
1332,1000.01,2738.29,0.00,988.67,875.00
1341,1001.30,2751.18,0.00,1003.56,884.22
1350,1002.59,2764.02,0.00,1028.56,876.00
1359,1003.87,2776.79,0.00,1063.44,874.11
1368,1005.15,2789.51,0.00,1155.56,874.00
1377,1006.43,2802.17,203.33,1344.67,875.33
1386,1007.71,2814.77,339.54,1471.00,870.56
1395,1008.99,2827.30,2521.59,2161.67,874.56
1404,1010.26,2839.78,9117.79,4619.00,876.67
1413,1011.53,2852.21,59433.72,15839.33,875.78
1422,1012.80,2864.57,15521.58,6394.89,881.67
1431,1014.06,2876.87,12307.61,4816.33,872.00
1440,1015.32,2889.12,16060.90,5467.11,877.89
1449,1016.58,2901.31,16153.63,5473.78,876.89
1458,1017.83,2913.44,22183.64,7162.11,873.33
1467,1019.09,2925.51,43338.84,11108.00,878.22
1476,1020.33,2937.53,48529.57,11303.56,881.00
1485,1021.58,2949.49,15147.50,5038.89,873.56
1494,1022.82,2961.39,6490.66,2725.22,872.44
1503,1024.07,2973.23,2726.36,1886.33,881.00
1512,1025.30,2985.02,892.77,1477.33,873.78
1521,1026.54,2996.75,69.95,1286.56,876.56
1530,1027.77,3008.43,0.00,1165.44,877.11
1539,1029.00,3020.05,0.00,1069.56,870.11
1548,1030.22,3031.61,0.00,1017.00,870.56
1557,1031.45,3043.12,0.00,980.56,874.00
1566,1032.67,3054.57,6.68,959.56,872.00
1575,1033.88,3065.97,0.00,935.22,862.78
1584,1035.10,3077.31,30.46,942.11,875.67
1593,1036.31,3088.60,8.19,931.11,874.11
1602,1037.52,3099.83,0.00,922.00,875.78
1611,1038.72,3111.00,14.04,925.44,876.67
1620,1039.92,3122.13,31.94,924.67,875.67
1629,1041.12,3133.20,79.19,930.11,877.89
1638,1042.32,3144.21,82.30,923.33,872.56
1647,1043.51,3155.17,133.73,927.67,875.11
1656,1044.70,3166.08,146.65,930.56,878.56
1665,1045.88,3176.93,144.70,929.67,879.89
1674,1047.07,3187.73,71.28,915.78,875.56
1683,1048.24,3198.48,183.62,924.44,876.44
1692,1049.42,3209.17,189.56,922.78,876.22
1701,1050.59,3219.81,284.54,922.67,872.56
1710,1051.76,3230.40,237.07,926.44,880.33
1719,1052.93,3240.94,208.21,916.22,873.67
1728,1054.10,3251.42,332.38,923.22,874.56
1737,1055.26,3261.86,370.82,927.56,879.11
1746,1056.41,3272.24,404.63,929.11,881.89
1755,1057.57,3282.57,475.15,932.89,882.56
1764,1058.72,3292.85,392.57,922.44,879.11
1773,1059.87,3303.07,569.91,923.11,873.89
1782,1061.01,3313.25,450.59,916.89,874.44
1791,1062.15,3323.38,474.47,914.78,872.56
1800,1063.29,3333.45,492.80,912.56,873.78
1809,1064.42,3343.48,398.98,912.33,878.11
1818,1065.55,3353.45,518.36,910.56,873.89
1827,1066.68,3363.38,475.00,910.78,876.89
1836,1067.81,3373.25,413.69,899.78,870.78
1845,1068.93,3383.08,570.40,903.56,869.89
1854,1070.05,3392.85,319.13,906.78,882.67
1863,1071.16,3402.58,436.49,899.33,873.56
1872,1072.27,3412.26,590.12,902.22,874.11
1881,1073.38,3421.89,270.81,889.44,870.11
1890,1074.49,3431.47,519.40,896.89,872.00
1899,1075.59,3441.00,360.32,892.56,873.22
1908,1076.69,3450.49,475.91,896.11,875.56
1917,1077.78,3459.93,304.05,887.89,872.44
1926,1078.87,3469.32,327.62,892.00,876.56
1935,1079.96,3478.66,449.05,890.22,872.44
1944,1081.05,3487.95,352.49,891.11,877.11
1953,1082.13,3497.20,441.46,888.89,873.11
1962,1083.21,3506.40,349.52,883.89,871.22
1971,1084.28,3515.56,426.00,892.78,879.00
1980,1085.36,3524.67,159.12,885.56,877.56
1989,1086.42,3533.73,307.75,882.33,872.56
1998,1087.49,3542.74,226.58,882.56,874.33
2007,1088.55,3551.71,364.24,880.78,871.33
2016,1089.61,3560.64,147.52,879.67,873.56
2025,1090.67,3569.52,355.71,880.89,871.89
2034,1091.72,3578.35,299.90,874.89,867.22
2043,1092.77,3587.14,505.14,873.33,864.44
2047,1093.23,3591.03,34.55,868.11,862.89

File: diethylamine.csv
ENLIGHTEN Version,4.1.22
Measurement ID,20250220-201019-664913-WP-01977
Serial Number,WP-01977
Model,WP-785X-F13-R-ILC
Detector,S16011-1106
Label,diethylamine
Declared Match,
Declared Score,0
Scan Averaging,2
Boxcar,0
Technique,Raman
Baseline Correction Algo,AirPLS
ROI Pixel Start,47
ROI Pixel End,2047
ROI Start Line,0
ROI Stop Line,63
CCD C4,1.38617e-12
Slit Width,25
Cropped,True
Interpolated,False
Wavenumber Correction,-0.100481
Raman Intensity Corrected,True
Deconvolved,True
Region,
High Gain Mode,False
Laser Power mW,
Electrical Dark Correction,False
Battery %,
Device ID,<DeviceID USB:0x24aa:0x1000:0:1>
FW Version,10.0.0.10
FPGA Version,035-001
BLE Version,
Prefix,enlighten
Suffix,
Preset,
Auto-Raman,True
Session Count,0
Plugin Name,
Integration Time,573
Timestamp,2025-02-20 20:10:19.6649
Note,
Temperature,0
CCD C0,793.274
CCD C1,0.153259
CCD C2,1.40788e-05
CCD C3,-1.132e-08
CCD Offset,0
CCD Gain,1.9
CCD Offset Odd,0
CCD Gain Odd,1.9
Laser Wavelength,785.032
Laser Enable,False
Laser Power %,0
Laser Temperature,0
Pixel Count,2048

Pixel,Wavelength,Wavenumber,Processed,Raw,Dark
0,793.27,132.25,NA,1014.00,968.50
9,794.65,154.15,NA,1022.00,991.50
18,796.04,176.01,NA,1056.00,1011.00
27,797.42,197.83,NA,1077.00,1017.00
36,798.81,219.60,NA,1075.00,989.50
45,800.20,241.33,NA,3616.00,1002.00
54,801.59,263.02,77.72,3661.50,1023.00
63,802.98,284.66,52.38,3557.00,1022.00
72,804.38,306.26,203.96,3641.50,1008.00
81,805.77,327.82,0.00,3265.00,1000.00
90,807.17,349.32,489.13,4016.50,1016.00
99,808.57,370.78,4120.61,8671.50,1024.00
108,809.98,392.19,1123.95,4793.00,994.50
117,811.38,413.56,2757.22,8349.00,1019.00
126,812.79,434.87,7176.56,15858.00,1003.00
135,814.19,456.14,757.82,3956.50,980.00
144,815.60,477.36,682.06,3810.00,1012.00
153,817.01,498.52,3019.02,6858.50,1022.00
162,818.42,519.64,246.84,2918.50,1019.00
171,819.84,540.70,0.00,2306.00,995.00
180,821.25,561.71,0.00,2155.00,979.00
189,822.67,582.67,0.00,2106.50,987.50
198,824.09,603.57,1.19,2099.00,983.50
207,825.50,624.43,0.00,2126.00,1016.00
216,826.92,645.22,0.00,2136.00,994.00
225,828.34,665.97,0.00,2220.50,975.00
234,829.77,686.66,218.10,2817.00,1129.00
243,831.19,707.29,752.26,3670.00,1026.50
252,832.61,727.87,1437.62,4876.00,1016.00
261,834.04,748.39,1351.21,4827.00,995.00
270,835.47,768.85,1470.99,5267.00,985.00
279,836.89,789.26,2263.21,6639.50,998.00
288,838.32,809.61,1886.92,6040.50,997.00
297,839.75,829.90,1814.41,5984.50,1025.50
306,841.18,850.14,2253.67,7009.50,1004.50
315,842.61,870.31,7544.76,15431.00,1008.50
324,844.04,890.43,6200.01,13304.50,994.00
333,845.47,910.49,3480.25,9205.00,993.00
342,846.90,930.49,4457.82,10428.50,1008.50
351,848.33,950.43,649.55,4455.50,997.00
360,849.77,970.31,0.17,3335.00,987.00
369,851.20,990.12,3.63,3505.00,1002.00
378,852.63,1009.88,1126.41,5627.50,1033.50
387,854.07,1029.58,3974.16,10695.50,1003.50
396,855.50,1049.21,10657.26,20048.50,1008.50
405,856.94,1068.79,3848.73,10084.00,1002.00
414,858.37,1088.30,1803.62,7164.00,972.50
423,859.81,1107.75,1932.91,7711.00,1018.00
432,861.25,1127.14,4433.17,11891.50,1015.00
441,862.68,1146.46,4969.33,12584.50,991.00
450,864.12,1165.73,585.62,5720.50,1005.00
459,865.55,1184.93,1183.37,6898.50,960.00
468,866.99,1204.06,1878.79,8022.50,1003.00
477,868.43,1223.14,0.00,4794.00,986.50
486,869.86,1242.15,780.28,6759.00,995.00
495,871.30,1261.10,4100.86,12031.00,990.00
504,872.73,1279.98,1519.37,8576.50,997.00
513,874.17,1298.80,1205.06,8235.00,993.00
522,875.60,1317.55,548.08,7537.00,990.50
531,877.04,1336.24,489.59,7749.00,974.50
540,878.47,1354.87,1033.88,8526.00,985.00
549,879.91,1373.43,1011.61,8597.50,1000.00
558,881.34,1391.93,1283.12,8834.00,959.00
567,882.78,1410.36,1593.87,9393.00,981.00
576,884.21,1428.73,5454.22,16087.00,1014.50
585,885.64,1447.03,21102.07,39417.00,979.00
594,887.08,1465.26,15031.85,30782.50,1009.50
603,888.51,1483.43,9422.36,20381.00,1006.50
612,889.94,1501.54,2326.60,10420.00,966.00
621,891.37,1519.58,698.23,7806.00,948.00
630,892.80,1537.56,121.61,6874.50,976.00
639,894.23,1555.46,0.00,6208.50,973.50
648,895.66,1573.31,34.65,5930.00,979.00
657,897.09,1591.09,0.00,5522.00,976.00
666,898.52,1608.80,57.41,5417.00,969.00
675,899.95,1626.44,137.92,5339.00,978.00
684,901.37,1644.02,328.49,5363.50,977.00
693,902.80,1661.54,291.55,5131.00,1008.50
702,904.22,1678.99,227.02,4799.00,963.00
711,905.64,1696.37,216.06,4597.50,994.00
720,907.07,1713.68,132.55,4252.00,972.50
729,908.49,1730.93,39.41,3938.50,985.00
738,909.91,1748.12,67.48,3749.00,972.00
747,911.33,1765.23,0.00,3477.50,968.00
756,912.75,1782.29,0.00,3323.50,967.00
765,914.16,1799.27,1.88,3226.50,976.00
774,915.58,1816.19,3.67,3103.50,958.50
783,916.99,1833.04,74.81,3110.00,984.00
792,918.41,1849.83,78.36,3009.50,977.50
801,919.82,1866.55,136.88,2973.00,975.50
810,921.23,1883.20,149.71,2912.50,987.50
819,922.64,1899.79,148.05,2787.50,956.00
828,924.05,1916.31,149.55,2722.50,984.00
837,925.46,1932.77,139.73,2607.00,977.00
846,926.86,1949.16,122.77,2507.50,982.50
855,928.27,1965.48,107.93,2373.00,954.50
864,929.67,1981.74,87.01,2285.00,981.00
873,931.07,1997.93,23.10,2145.50,991.00
882,932.47,2014.06,0.00,2021.50,978.00
891,933.87,2030.12,0.46,1952.50,982.00
900,935.27,2046.11,3.71,1901.00,999.00
909,936.66,2062.04,16.10,1844.00,1004.00
918,938.06,2077.91,23.54,1771.00,976.00
927,939.45,2093.70,22.62,1715.00,979.00
936,940.84,2109.44,0.23,1624.50,972.50
945,942.23,2125.10,0.55,1590.00,984.00
954,943.62,2140.70,0.09,1574.50,990.50
963,945.00,2156.24,0.21,1544.50,968.00
972,946.39,2171.71,56.59,1599.50,975.50
981,947.77,2187.12,146.53,1643.00,962.00
990,949.15,2202.46,68.98,1600.00,980.00
999,950.53,2217.73,94.31,1592.50,960.00
1008,951.90,2232.94,223.51,1700.50,964.00
1017,953.28,2248.09,326.65,1810.00,994.00
1026,954.65,2263.17,446.12,1872.00,968.50
1035,956.02,2278.19,435.89,1850.50,981.00
1044,957.39,2293.14,270.42,1708.00,979.00
1053,958.75,2308.03,210.74,1623.50,968.50
1062,960.12,2322.85,84.50,1512.50,963.00
1071,961.48,2337.61,25.07,1472.50,972.50
1080,962.84,2352.31,19.40,1457.50,974.00
1089,964.20,2366.94,0.00,1449.00,988.00
1098,965.56,2381.51,21.30,1471.00,991.00
1107,966.91,2396.01,23.43,1465.00,984.00
1116,968.26,2410.45,7.00,1469.00,992.50
1125,969.61,2424.83,71.71,1491.50,970.00
1134,970.96,2439.14,56.23,1487.00,979.50
1143,972.30,2453.39,0.00,1448.00,972.50
1152,973.65,2467.58,0.00,1468.00,975.00
1161,974.99,2481.70,0.00,1519.50,979.00
1170,976.33,2495.76,36.51,1651.00,989.50
1179,977.66,2509.76,151.75,1774.50,982.00
1188,979.00,2523.70,136.65,1834.50,988.50
1197,980.33,2537.57,0.00,1802.00,959.00
1206,981.66,2551.38,117.30,1982.50,1007.00
1215,982.98,2565.13,538.92,2216.00,970.00
1224,984.31,2578.82,175.68,2102.00,966.00
1233,985.63,2592.44,154.43,2111.50,959.00
1242,986.95,2606.01,0.00,2135.00,999.00
1251,988.27,2619.51,0.00,2297.50,998.00
1260,989.58,2632.95,782.00,2930.00,994.00
1269,990.89,2646.33,2236.94,3642.00,1036.00
1278,992.20,2659.65,0.00,2814.00,1002.00
1287,993.51,2672.91,16.15,3318.00,993.50
1296,994.81,2686.10,764.35,3963.50,1003.00
1305,996.12,2699.24,0.00,4051.50,1006.00
1314,997.41,2712.32,721.98,5197.50,1015.00
1323,998.71,2725.33,1406.02,5886.50,987.00
1332,1000.01,2738.29,1074.71,6153.50,1011.00
1341,1001.30,2751.18,3118.08,7087.50,1046.50
1350,1002.59,2764.02,1145.35,6840.50,1024.00
1359,1003.87,2776.79,7128.29,8342.00,1007.50
1368,1005.15,2789.51,9222.82,8989.50,1007.50
1377,1006.43,2802.17,18606.59,11828.50,1007.50
1386,1007.71,2814.77,31446.03,15059.50,1001.00
1395,1008.99,2827.30,24482.33,12823.50,994.50
1404,1010.26,2839.78,18245.05,10528.00,1016.00
1413,1011.53,2852.21,18008.25,10299.50,1004.00
1422,1012.80,2864.57,45071.61,17354.00,1038.00
1431,1014.06,2876.87,61791.62,21120.00,989.50
1440,1015.32,2889.12,58861.26,19576.50,1022.00
1449,1016.58,2901.31,53328.26,17900.50,1008.50
1458,1017.83,2913.44,67226.17,20699.50,998.00
1467,1019.09,2925.51,89500.97,24709.50,1019.00
1476,1020.33,2937.53,73860.36,20501.50,1029.50
1485,1021.58,2949.49,47678.95,14382.00,1011.50
1494,1022.82,2961.39,50581.82,14189.50,1000.00
1503,1024.07,2973.23,51482.76,13511.50,1037.00
1512,1025.30,2985.02,20451.96,7424.50,983.50
1521,1026.54,2996.75,6490.48,4359.50,1008.50
1530,1027.77,3008.43,834.56,3151.00,1006.50
1539,1029.00,3020.05,0.00,2477.00,985.00
1548,1030.22,3031.61,0.00,2113.50,988.50
1557,1031.45,3043.12,0.00,1876.00,1002.00
1566,1032.67,3054.57,38.25,1714.00,978.00
1575,1033.88,3065.97,0.00,1561.00,956.00
1584,1035.10,3077.31,0.00,1536.50,1009.50
1593,1036.31,3088.60,0.00,1471.50,1016.00
1602,1037.52,3099.83,37.77,1428.00,994.00
1611,1038.72,3111.00,0.00,1405.50,1017.00
1620,1039.92,3122.13,0.00,1367.00,1019.00
1629,1041.12,3133.20,73.31,1366.00,1024.00
1638,1042.32,3144.21,29.94,1330.50,999.00
1647,1043.51,3155.17,0.00,1327.00,1014.00
1656,1044.70,3166.08,0.00,1361.50,1038.00
1665,1045.88,3176.93,0.00,1354.00,1028.00
1674,1047.07,3187.73,27.53,1333.50,991.50
1683,1048.24,3198.48,91.80,1391.00,1028.50
1692,1049.42,3209.17,125.70,1394.50,1017.00
1701,1050.59,3219.81,241.58,1396.50,998.00
1710,1051.76,3230.40,281.90,1437.50,1024.50
1719,1052.93,3240.94,509.68,1418.00,987.00
1728,1054.10,3251.42,1408.79,1486.00,1006.00
1737,1055.26,3261.86,1992.69,1533.50,1026.50
1746,1056.41,3272.24,3034.88,1586.50,1031.50
1755,1057.57,3282.57,4142.33,1645.50,1043.00
1764,1058.72,3292.85,5699.01,1696.50,1013.50
1773,1059.87,3303.07,8695.13,1836.50,1011.00
1782,1061.01,3313.25,12461.53,2001.50,1015.00
1791,1062.15,3323.38,10845.89,1887.50,1007.00
1800,1063.29,3333.45,8261.54,1707.00,1003.00
1809,1064.42,3343.48,5370.99,1542.00,1007.50
1818,1065.55,3353.45,2498.40,1387.50,1009.50
1827,1066.68,3363.38,1284.46,1316.00,1006.50
1836,1067.81,3373.25,1003.95,1252.50,976.00
1845,1068.93,3383.08,865.63,1216.50,970.50
1854,1070.05,3392.85,357.99,1257.00,1047.50
1863,1071.16,3402.58,202.68,1180.50,1000.00
1872,1072.27,3412.26,260.71,1180.00,1010.50
1881,1073.38,3421.89,521.89,1135.00,973.50
1890,1074.49,3431.47,206.64,1133.50,995.00
1899,1075.59,3441.00,513.82,1130.00,996.00
1908,1076.69,3450.49,389.35,1138.50,1018.00
1917,1077.78,3459.93,88.84,1090.00,987.00
1926,1078.87,3469.32,846.50,1123.00,1011.50
1935,1079.96,3478.66,374.79,1084.50,992.00
1944,1081.05,3487.95,827.41,1112.00,1018.00
1953,1082.13,3497.20,610.36,1096.00,1015.00
1962,1083.21,3506.40,543.21,1072.00,992.00
1971,1084.28,3515.56,1079.87,1104.50,1022.50
1980,1085.36,3524.67,1191.16,1078.00,1003.00
1989,1086.42,3533.73,356.02,1048.00,989.50
1998,1087.49,3542.74,128.30,1048.00,999.00
2007,1088.55,3551.71,492.37,1037.00,986.00
2016,1089.61,3560.64,376.86,1030.00,983.00
2025,1090.67,3569.52,600.91,1046.50,999.00
2034,1091.72,3578.35,0.00,998.00,965.00
2043,1092.77,3587.14,0.00,997.00,964.00
2047,1093.23,3591.03,32.94,986.50,950.50