Folder: ENLIGHTEN/enlighten/plugins/Raman/MatchingLibrary/785X (part 7)

File: sodium carbonate.csv
ENLIGHTEN Version,4.1.22
Measurement ID,20250220-201857-894594-WP-01977
Serial Number,WP-01977
Model,WP-785X-F13-R-ILC
Detector,S16011-1106
Label,sodium carbonate
Declared Match,
Declared Score,0
Scan Averaging,3
Boxcar,0
Technique,Raman
Baseline Correction Algo,AirPLS
ROI Pixel Start,47
ROI Pixel End,2047
ROI Start Line,0
ROI Stop Line,63
CCD C4,1.38617e-12
Slit Width,25
Cropped,True
Interpolated,False
Wavenumber Correction,-0.100481
Raman Intensity Corrected,True
Deconvolved,True
Region,
High Gain Mode,False
Laser Power mW,
Electrical Dark Correction,False
Battery %,
Device ID,<DeviceID USB:0x24aa:0x1000:0:1>
FW Version,10.0.0.10
FPGA Version,035-001
BLE Version,
Prefix,enlighten
Suffix,
Preset,
Auto-Raman,True
Session Count,0
Plugin Name,
Integration Time,495
Timestamp,2025-02-20 20:18:57.8946
Note,
Temperature,0
CCD C0,793.274
CCD C1,0.153259
CCD C2,1.40788e-05
CCD C3,-1.132e-08
CCD Offset,0
CCD Gain,1.9
CCD Offset Odd,0
CCD Gain Odd,1.9
Laser Wavelength,785.032
Laser Enable,False
Laser Power %,0
Laser Temperature,0
Pixel Count,2048

Pixel,Wavelength,Wavenumber,Processed,Raw,Dark
0,793.27,132.25,NA,1010.67,957.00
9,794.65,154.15,NA,1027.00,966.00
18,796.04,176.01,NA,1058.33,979.33
27,797.42,197.83,NA,1076.00,992.33
36,798.81,219.60,NA,1111.67,969.00
45,800.20,241.33,NA,5747.33,987.33
54,801.59,263.02,221.38,6105.00,1006.33
63,802.98,284.66,0.00,5747.33,1010.33
72,804.38,306.26,36.98,5954.33,1003.33
81,805.77,327.82,24.20,6045.33,988.33
90,807.17,349.32,46.88,6184.33,989.00
99,808.57,370.78,14.22,6270.67,997.33
108,809.98,392.19,3.05,6345.33,978.67
117,811.38,413.56,8.86,6475.67,989.67
126,812.79,434.87,94.40,6651.67,983.33
135,814.19,456.14,113.74,6737.00,964.67
144,815.60,477.36,180.23,6925.33,995.00
153,817.01,498.52,156.04,6923.67,996.67
162,818.42,519.64,0.00,6708.67,990.33
171,819.84,540.70,26.48,6828.67,971.67
180,821.25,561.71,14.12,6908.00,967.33
189,822.67,582.67,0.66,6997.67,979.00
198,824.09,603.57,0.00,7050.00,967.67
207,825.50,624.43,27.96,7356.33,986.67
216,826.92,645.22,347.45,7909.67,974.00
225,828.34,665.97,370.07,8040.33,971.67
234,829.77,686.66,590.04,8533.67,1082.33
243,831.19,707.29,441.21,8345.67,998.00
252,832.61,727.87,5.60,7664.00,1003.00
261,834.04,748.39,0.00,7548.33,983.33
270,835.47,768.85,0.00,7547.00,971.67
279,836.89,789.26,45.11,7693.67,979.67
288,838.32,809.61,15.55,7712.67,976.67
297,839.75,829.90,4.82,7753.00,1008.67
306,841.18,850.14,0.00,7773.67,990.67
315,842.61,870.31,0.00,7871.00,985.00
324,844.04,890.43,42.59,8073.00,964.67
333,845.47,910.49,38.03,8223.33,979.00
342,846.90,930.49,0.00,8296.00,985.00
351,848.33,950.43,19.29,8524.33,975.33
360,849.77,970.31,0.00,8694.67,977.67
369,851.20,990.12,0.00,9036.00,986.33
378,852.63,1009.88,0.00,9398.67,1007.67
387,854.07,1029.58,0.00,9964.33,977.67
396,855.50,1049.21,130.33,11794.00,974.67
405,856.94,1068.79,22848.93,41179.00,984.00
414,858.37,1088.30,0.00,11924.67,966.67
423,859.81,1107.75,0.00,11984.00,1000.00
432,861.25,1127.14,0.00,12563.67,991.00
441,862.68,1146.46,4.58,13253.00,974.67
450,864.12,1165.73,13.38,13938.67,982.33
459,865.55,1184.93,0.00,14547.00,958.00
468,866.99,1204.06,0.00,15240.33,977.67
477,868.43,1223.14,0.00,16039.67,966.00
486,869.86,1242.15,0.00,17251.00,978.67
495,871.30,1261.10,0.00,18631.33,974.33
504,872.73,1279.98,203.64,21216.67,972.33
513,874.17,1298.80,1213.04,24178.67,977.00
522,875.60,1317.55,2757.92,27737.00,987.33
531,877.04,1336.24,3601.55,30160.67,962.00
540,878.47,1354.87,3968.09,31761.67,970.00
549,879.91,1373.43,3427.52,31938.00,976.33
558,881.34,1391.93,2817.67,31900.67,954.00
567,882.78,1410.36,1340.63,30665.00,963.33
576,884.21,1428.73,333.00,29610.00,987.33
585,885.64,1447.03,53.07,28799.67,962.00
594,887.08,1465.26,0.00,28128.67,983.67
603,888.51,1483.43,44.92,28121.33,977.67
612,889.94,1501.54,63.31,27926.67,954.67
621,891.37,1519.58,206.40,27913.67,939.00
630,892.80,1537.56,1032.11,28501.33,960.67
639,894.23,1555.46,13.18,26809.33,960.00
648,895.66,1573.31,116.28,26396.00,963.33
657,897.09,1591.09,11.77,25719.00,953.33
666,898.52,1608.80,125.20,25375.00,963.33
675,899.95,1626.44,256.27,25042.33,956.33
684,901.37,1644.02,149.79,24393.67,975.33
693,902.80,1661.54,446.74,24190.00,990.00
702,904.22,1678.99,143.40,23214.33,946.67
711,905.64,1696.37,278.29,22782.67,981.67
720,907.07,1713.68,190.02,22011.00,956.00
729,908.49,1730.93,7.64,21176.67,969.67
738,909.91,1748.12,145.61,20679.33,965.33
747,911.33,1765.23,0.00,19867.00,962.67
756,912.75,1782.29,31.40,19407.67,958.67
765,914.16,1799.27,57.44,18961.00,961.00
774,915.58,1816.19,0.00,18354.00,945.67
783,916.99,1833.04,308.28,18274.33,969.33
792,918.41,1849.83,231.76,17724.00,972.67
801,919.82,1866.55,327.40,17291.00,970.33
810,921.23,1883.20,515.75,16948.67,985.67
819,922.64,1899.79,449.64,16252.67,957.67
828,924.05,1916.31,390.46,15617.00,961.33
837,925.46,1932.77,407.36,15063.00,960.67
846,926.86,1949.16,48.75,14137.33,972.00
855,928.27,1965.48,138.88,13522.00,951.67
864,929.67,1981.74,76.15,12769.33,969.67
873,931.07,1997.93,5.05,12016.00,969.33
882,932.47,2014.06,4.66,11403.33,961.33
891,933.87,2030.12,11.52,10847.67,963.00
900,935.27,2046.11,0.00,10260.33,993.67
909,936.66,2062.04,44.28,9927.00,988.00
918,938.06,2077.91,0.00,9448.00,958.33
927,939.45,2093.70,0.11,9128.33,974.33
936,940.84,2109.44,33.62,8888.00,968.33
945,942.23,2125.10,28.93,8623.00,971.33
954,943.62,2140.70,0.00,8321.67,972.67
963,945.00,2156.24,78.72,8200.00,953.67
972,946.39,2171.71,56.15,7972.33,960.67
981,947.77,2187.12,0.00,7702.00,944.33
990,949.15,2202.46,114.33,7685.33,971.67
999,950.53,2217.73,59.75,7505.67,947.00
1008,951.90,2232.94,25.41,7333.67,954.00
1017,953.28,2248.09,95.26,7253.00,979.00
1026,954.65,2263.17,108.67,7088.00,958.33
1035,956.02,2278.19,6.75,6880.00,965.33
1044,957.39,2293.14,67.37,6798.33,960.67
1053,958.75,2308.03,93.02,6656.67,952.00
1062,960.12,2322.85,6.65,6459.00,956.00
1071,961.48,2337.61,59.10,6373.67,963.33
1080,962.84,2352.31,82.73,6266.33,962.00
1089,964.20,2366.94,2.23,6093.33,970.33
1098,965.56,2381.51,92.96,6020.67,966.67
1107,966.91,2396.01,135.07,5936.00,969.67
1116,968.26,2410.45,17.35,5725.00,962.00
1125,969.61,2424.83,0.00,5566.00,949.33
1134,970.96,2439.14,88.58,5527.67,961.33
1143,972.30,2453.39,69.34,5415.33,960.33
1152,973.65,2467.58,78.12,5299.00,957.00
1161,974.99,2481.70,186.30,5235.33,956.00
1170,976.33,2495.76,76.17,5085.33,966.00
1179,977.66,2509.76,0.00,4932.00,970.67
1188,979.00,2523.70,65.23,4873.67,975.33
1197,980.33,2537.57,98.76,4757.67,953.33
1206,981.66,2551.38,8.80,4634.33,983.00
1215,982.98,2565.13,89.69,4546.67,957.67
1224,984.31,2578.82,42.34,4422.67,956.33
1233,985.63,2592.44,52.39,4319.00,953.33
1242,986.95,2606.01,56.46,4255.33,984.67
1251,988.27,2619.51,55.40,4158.33,985.33
1260,989.58,2632.95,43.75,4059.67,979.00
1269,990.89,2646.33,11.54,3983.67,1013.67
1278,992.20,2659.65,34.37,3875.00,974.33
1287,993.51,2672.91,87.15,3809.00,985.33
1296,994.81,2686.10,106.53,3714.67,973.67
1305,996.12,2699.24,38.70,3618.67,984.33
1314,997.41,2712.32,97.69,3561.67,985.67
1323,998.71,2725.33,44.35,3459.00,977.67
1332,1000.01,2738.29,77.58,3406.00,993.67
1341,1001.30,2751.18,0.00,3325.00,1015.00
1350,1002.59,2764.02,0.00,3233.00,1000.33
1359,1003.87,2776.79,38.13,3171.00,978.00
1368,1005.15,2789.51,14.35,3101.00,982.67
1377,1006.43,2802.17,0.00,3023.67,981.67
1386,1007.71,2814.77,76.08,2964.00,962.00
1395,1008.99,2827.30,38.25,2908.33,973.33
1404,1010.26,2839.78,15.82,2854.00,991.67
1413,1011.53,2852.21,9.95,2788.00,976.33
1422,1012.80,2864.57,60.92,2795.33,1010.00
1431,1014.06,2876.87,80.94,2708.00,965.33
1440,1015.32,2889.12,72.31,2685.33,987.33
1449,1016.58,2901.31,0.00,2621.33,976.33
1458,1017.83,2913.44,34.66,2602.33,971.67
1467,1019.09,2925.51,79.08,2591.67,981.00
1476,1020.33,2937.53,97.18,2578.33,999.67
1485,1021.58,2949.49,61.20,2525.33,985.67
1494,1022.82,2961.39,114.35,2508.00,983.33
1503,1024.07,2973.23,65.12,2500.33,1014.67
1512,1025.30,2985.02,52.32,2414.00,969.00
1521,1026.54,2996.75,58.04,2389.67,973.67
1530,1027.77,3008.43,77.71,2377.00,984.33
1539,1029.00,3020.05,20.09,2310.00,958.00
1548,1030.22,3031.61,60.27,2305.00,972.33
1557,1031.45,3043.12,76.63,2296.67,984.33
1566,1032.67,3054.57,74.51,2260.00,967.33
1575,1033.88,3065.97,42.89,2215.67,945.00
1584,1035.10,3077.31,7.62,2233.33,988.00
1593,1036.31,3088.60,58.62,2225.33,983.33
1602,1037.52,3099.83,43.29,2207.67,974.00
1611,1038.72,3111.00,148.20,2239.00,999.33
1620,1039.92,3122.13,0.00,2213.00,999.33
1629,1041.12,3133.20,109.37,2226.33,993.00
1638,1042.32,3144.21,6.30,2210.33,973.00
1647,1043.51,3155.17,0.00,2249.00,988.67
1656,1044.70,3166.08,115.04,2322.00,1006.67
1665,1045.88,3176.93,0.00,2338.33,1003.67
1674,1047.07,3187.73,18.56,2390.33,974.67
1683,1048.24,3198.48,0.00,2492.00,1006.33
1692,1049.42,3209.17,500.15,2590.33,990.33
1701,1050.59,3219.81,311.36,2651.67,993.00
1710,1051.76,3230.40,1481.48,2762.67,1002.00
1719,1052.93,3240.94,1994.91,2786.00,974.67
1728,1054.10,3251.42,3199.69,2873.33,984.33
1737,1055.26,3261.86,3706.69,2918.00,1002.67
1746,1056.41,3272.24,3784.88,2912.33,1010.67
1755,1057.57,3282.57,3101.41,2867.33,1021.67
1764,1058.72,3292.85,2237.83,2770.33,1000.00
1773,1059.87,3303.07,1389.21,2672.67,990.33
1782,1061.01,3313.25,1085.86,2590.67,986.00
1791,1062.15,3323.38,1444.14,2513.33,966.67
1800,1063.29,3333.45,833.73,2426.33,983.00
1809,1064.42,3343.48,543.10,2343.67,984.33
1818,1065.55,3353.45,314.85,2262.33,986.33
1827,1066.68,3363.38,43.50,2194.00,1000.33
1836,1067.81,3373.25,204.05,2098.00,964.33
1845,1068.93,3383.08,40.27,2024.33,964.67
1854,1070.05,3392.85,503.85,2025.33,1012.67
1863,1071.16,3402.58,0.00,1912.67,982.33
1872,1072.27,3412.26,138.20,1872.00,988.00
1881,1073.38,3421.89,801.55,1791.33,951.33
1890,1074.49,3431.47,1008.43,1764.00,968.00
1899,1075.59,3441.00,685.75,1713.00,977.00
1908,1076.69,3450.49,935.94,1683.00,993.00
1917,1077.78,3459.93,296.71,1595.00,968.33
1926,1078.87,3469.32,304.69,1568.33,988.67
1935,1079.96,3478.66,185.28,1506.67,974.67
1944,1081.05,3487.95,327.70,1487.33,991.67
1953,1082.13,3497.20,212.95,1448.33,994.33
1962,1083.21,3506.40,1.02,1396.33,981.67
1971,1084.28,3515.56,118.73,1387.33,999.33
1980,1085.36,3524.67,115.88,1344.33,985.67
1989,1086.42,3533.73,377.10,1301.67,964.00
1998,1087.49,3542.74,682.34,1308.33,988.00
2007,1088.55,3551.71,296.51,1257.67,965.33
2016,1089.61,3560.64,0.00,1224.67,970.00
2025,1090.67,3569.52,1175.51,1231.33,971.33
2034,1091.72,3578.35,1078.96,1183.00,939.67
2043,1092.77,3587.14,259.41,1162.67,946.33
2047,1093.23,3591.03,0.00,1135.33,935.33

File: sodium hydrogen citrate.csv
ENLIGHTEN Version,4.1.22
Measurement ID,20250220-204437-066725-WP-01977
Serial Number,WP-01977
Model,WP-785X-F13-R-ILC
Detector,S16011-1106
Label,sodium hydrogen citrate
Declared Match,
Declared Score,0
Scan Averaging,1
Boxcar,0
Technique,Raman
Baseline Correction Algo,AirPLS
ROI Pixel Start,47
ROI Pixel End,2047
ROI Start Line,0
ROI Stop Line,63
CCD C4,1.38617e-12
Slit Width,25
Cropped,True
Interpolated,False
Wavenumber Correction,-0.100481
Raman Intensity Corrected,True
Deconvolved,True
Region,
High Gain Mode,False
Laser Power mW,
Electrical Dark Correction,False
Battery %,
Device ID,<DeviceID USB:0x24aa:0x1000:0:1>
FW Version,10.0.0.10
FPGA Version,035-001
BLE Version,
Prefix,enlighten
Suffix,
Preset,
Auto-Raman,True
Session Count,0
Plugin Name,
Integration Time,2000
Timestamp,2025-02-20 20:44:37.0667
Note,
Temperature,0
CCD C0,793.274
CCD C1,0.153259
CCD C2,1.40788e-05
CCD C3,-1.132e-08
CCD Offset,0
CCD Gain,1.9
CCD Offset Odd,0
CCD Gain Odd,1.9
Laser Wavelength,785.032
Laser Enable,False
Laser Power %,0
Laser Temperature,0
Pixel Count,2048

Pixel,Wavelength,Wavenumber,Processed,Raw,Dark
0,793.27,132.25,NA,1385.00,1296.00
9,794.65,154.15,NA,1442.00,1353.00
18,796.04,176.01,NA,1539.00,1399.00
27,797.42,197.83,NA,1598.00,1439.00
36,798.81,219.60,NA,1588.00,1376.00
45,800.20,241.33,NA,8546.00,1406.00
54,801.59,263.02,312.98,9334.00,1518.00
63,802.98,284.66,511.38,9585.00,1478.00
72,804.38,306.26,976.40,10268.00,1465.00
81,805.77,327.82,241.73,9270.00,1429.00
90,807.17,349.32,0.00,8797.00,1429.00
99,808.57,370.78,365.94,9571.00,1440.00
108,809.98,392.19,2637.70,12780.00,1391.00
117,811.38,413.56,835.11,10511.00,1440.00
126,812.79,434.87,127.60,9488.00,1412.00
135,814.19,456.14,864.25,10376.00,1336.00
144,815.60,477.36,1308.27,11153.00,1425.00
153,817.01,498.52,1662.41,11495.00,1454.00
162,818.42,519.64,1152.94,10464.00,1475.00
171,819.84,540.70,2863.82,12894.00,1363.00
180,821.25,561.71,2632.82,12463.00,1336.00
189,822.67,582.67,932.79,9494.00,1387.00
198,824.09,603.57,0.00,7481.00,1342.00
207,825.50,624.43,229.46,7869.00,1435.00
216,826.92,645.22,2617.63,11141.00,1383.00
225,828.34,665.97,1133.90,8861.00,1306.00
234,829.77,686.66,60.63,7375.00,1609.00
243,831.19,707.29,9.10,6999.00,1456.00
252,832.61,727.87,0.00,6912.00,1452.00
261,834.04,748.39,0.00,6965.00,1391.00
270,835.47,768.85,226.94,7496.00,1344.00
279,836.89,789.26,3269.56,11973.00,1387.00
288,838.32,809.61,598.17,8541.00,1374.00
297,839.75,829.90,1923.26,11738.00,1505.00
306,841.18,850.14,4803.59,16632.00,1446.00
315,842.61,870.31,30.02,7677.00,1402.00
324,844.04,890.43,397.82,8449.00,1323.00
333,845.47,910.49,3933.02,14071.00,1368.00
342,846.90,930.49,57.62,7736.00,1408.00
351,848.33,950.43,2278.85,11436.00,1382.00
360,849.77,970.31,5612.35,15967.00,1387.00
369,851.20,990.12,5.01,7052.00,1401.00
378,852.63,1009.88,0.00,6923.00,1475.00
387,854.07,1029.58,390.21,7776.00,1383.00
396,855.50,1049.21,5988.68,15927.00,1385.00
405,856.94,1068.79,548.53,8411.00,1410.00
414,858.37,1088.30,4398.05,15730.00,1330.00
423,859.81,1107.75,3302.61,14099.00,1446.00
432,861.25,1127.14,457.73,8852.00,1439.00
441,862.68,1146.46,0.00,7684.00,1355.00
450,864.12,1165.73,0.00,7726.00,1383.00
459,865.55,1184.93,129.11,8630.00,1270.00
468,866.99,1204.06,2889.72,13152.00,1380.00
477,868.43,1223.14,0.00,9197.00,1359.00
486,869.86,1242.15,78.47,10414.00,1361.00
495,871.30,1261.10,6243.09,19738.00,1370.00
504,872.73,1279.98,592.50,12672.00,1363.00
513,874.17,1298.80,990.55,13980.00,1376.00
522,875.60,1317.55,84.30,13137.00,1395.00
531,877.04,1336.24,23.95,13579.00,1304.00
540,878.47,1354.87,421.96,14766.00,1372.00
549,879.91,1373.43,2469.89,17845.00,1374.00
558,881.34,1391.93,5295.70,22168.00,1268.00
567,882.78,1410.36,17223.46,37708.00,1317.00
576,884.21,1428.73,4133.88,20508.00,1418.00
585,885.64,1447.03,2406.62,17410.00,1319.00
594,887.08,1465.26,0.00,13564.00,1404.00
603,888.51,1483.43,114.91,13482.00,1383.00
612,889.94,1501.54,91.17,13197.00,1270.00
621,891.37,1519.58,122.65,13053.00,1243.00
630,892.80,1537.56,28.88,12791.00,1315.00
639,894.23,1555.46,24.45,12601.00,1287.00
648,895.66,1573.31,437.64,12972.00,1302.00
657,897.09,1591.09,711.82,13215.00,1290.00
666,898.52,1608.80,1199.68,13674.00,1298.00
675,899.95,1626.44,2377.71,15052.00,1302.00
684,901.37,1644.02,4797.20,18040.00,1372.00
693,902.80,1661.54,2432.45,14851.00,1433.00
702,904.22,1678.99,714.39,11967.00,1262.00
711,905.64,1696.37,184.41,11065.00,1347.00
720,907.07,1713.68,37.93,10418.00,1306.00
729,908.49,1730.93,0.00,9894.00,1319.00
738,909.91,1748.12,70.56,9592.00,1340.00
747,911.33,1765.23,0.00,9055.00,1296.00
756,912.75,1782.29,76.31,8842.00,1271.00
765,914.16,1799.27,85.10,8668.00,1325.00
774,915.58,1816.19,19.79,8279.00,1268.00
783,916.99,1833.04,165.15,8250.00,1344.00
792,918.41,1849.83,201.67,8047.00,1366.00
801,919.82,1866.55,275.53,7827.00,1313.00
810,921.23,1883.20,497.01,7869.00,1387.00
819,922.64,1899.79,380.64,7362.00,1270.00
828,924.05,1916.31,414.71,7185.00,1319.00
837,925.46,1932.77,533.29,6999.00,1296.00
846,926.86,1949.16,386.01,6674.00,1355.00
855,928.27,1965.48,366.53,6318.00,1285.00
864,929.67,1981.74,223.15,5981.00,1327.00
873,931.07,1997.93,175.56,5702.00,1347.00
882,932.47,2014.06,241.87,5458.00,1294.00
891,933.87,2030.12,46.68,5121.00,1349.00
900,935.27,2046.11,22.02,4958.00,1439.00
909,936.66,2062.04,0.00,4687.00,1418.00
918,938.06,2077.91,0.00,4402.00,1298.00
927,939.45,2093.70,104.12,4360.00,1323.00
936,940.84,2109.44,23.80,4110.00,1309.00
945,942.23,2125.10,30.00,4022.00,1359.00
954,943.62,2140.70,0.00,3838.00,1355.00
963,945.00,2156.24,28.64,3707.00,1266.00
972,946.39,2171.71,0.59,3645.00,1319.00
981,947.77,2187.12,81.51,3574.00,1256.00
990,949.15,2202.46,94.36,3576.00,1342.00
999,950.53,2217.73,119.14,3434.00,1266.00
1008,951.90,2232.94,62.24,3327.00,1256.00
1017,953.28,2248.09,49.06,3348.00,1366.00
1026,954.65,2263.17,57.21,3196.00,1283.00
1035,956.02,2278.19,78.22,3166.00,1302.00
1044,957.39,2293.14,10.33,3117.00,1338.00
1053,958.75,2308.03,70.04,3084.00,1306.00
1062,960.12,2322.85,58.50,3014.00,1275.00
1071,961.48,2337.61,55.87,3010.00,1298.00
1080,962.84,2352.31,73.93,2984.00,1306.00
1089,964.20,2366.94,37.69,2955.00,1342.00
1098,965.56,2381.51,36.82,2914.00,1332.00
1107,966.91,2396.01,168.24,2938.00,1313.00
1116,968.26,2410.45,94.71,2885.00,1328.00
1125,969.61,2424.83,8.33,2762.00,1285.00
1134,970.96,2439.14,123.93,2832.00,1313.00
1143,972.30,2453.39,266.56,2862.00,1287.00
1152,973.65,2467.58,191.79,2828.00,1321.00
1161,974.99,2481.70,363.48,2866.00,1298.00
1170,976.33,2495.76,289.10,2838.00,1347.00
1179,977.66,2509.76,265.97,2754.00,1313.00
1188,979.00,2523.70,150.65,2709.00,1368.00
1197,980.33,2537.57,158.42,2597.00,1283.00
1206,981.66,2551.38,195.98,2695.00,1404.00
1215,982.98,2565.13,35.61,2492.00,1306.00
1224,984.31,2578.82,201.44,2532.00,1309.00
1233,985.63,2592.44,98.83,2431.00,1296.00
1242,986.95,2606.01,57.22,2505.00,1433.00
1251,988.27,2619.51,82.81,2430.00,1387.00
1260,989.58,2632.95,125.21,2403.00,1389.00
1269,990.89,2646.33,35.11,2412.00,1465.00
1278,992.20,2659.65,81.76,2317.00,1376.00
1287,993.51,2672.91,170.83,2310.00,1361.00
1296,994.81,2686.10,111.12,2299.00,1391.00
1305,996.12,2699.24,123.88,2264.00,1385.00
1314,997.41,2712.32,182.95,2295.00,1414.00
1323,998.71,2725.33,60.58,2168.00,1353.00
1332,1000.01,2738.29,217.49,2257.00,1423.00
1341,1001.30,2751.18,0.00,2280.00,1558.00
1350,1002.59,2764.02,31.59,2188.00,1448.00
1359,1003.87,2776.79,109.34,2150.00,1395.00
1368,1005.15,2789.51,57.06,2143.00,1410.00
1377,1006.43,2802.17,97.79,2116.00,1368.00
1386,1007.71,2814.77,108.38,2069.00,1302.00
1395,1008.99,2827.30,0.00,2090.00,1338.00
1404,1010.26,2839.78,0.00,2204.00,1425.00
1413,1011.53,2852.21,244.90,2264.00,1355.00
1422,1012.80,2864.57,224.02,2422.00,1494.00
1431,1014.06,2876.87,323.39,2299.00,1321.00
1440,1015.32,2889.12,69.03,2390.00,1429.00
1449,1016.58,2901.31,73.18,2390.00,1383.00
1458,1017.83,2913.44,93.64,2475.00,1319.00
1467,1019.09,2925.51,2380.78,3084.00,1397.00
1476,1020.33,2937.53,13326.48,5672.00,1484.00
1485,1021.58,2949.49,33931.60,9532.00,1439.00
1494,1022.82,2961.39,10516.56,5120.00,1387.00
1503,1024.07,2973.23,4450.81,3468.00,1503.00
1512,1025.30,2985.02,17912.45,5475.00,1344.00
1521,1026.54,2996.75,13358.54,4865.00,1416.00
1530,1027.77,3008.43,3397.79,2999.00,1427.00
1539,1029.00,3020.05,241.88,2147.00,1327.00
1548,1030.22,3031.61,0.00,1987.00,1366.00
1557,1031.45,3043.12,68.58,1959.00,1399.00
1566,1032.67,3054.57,415.95,1887.00,1327.00
1575,1033.88,3065.97,144.78,1746.00,1251.00
1584,1035.10,3077.31,158.20,1913.00,1431.00
1593,1036.31,3088.60,497.67,1913.00,1421.00
1602,1037.52,3099.83,321.11,1828.00,1355.00
1611,1038.72,3111.00,197.46,1911.00,1452.00
1620,1039.92,3122.13,193.30,1917.00,1435.00
1629,1041.12,3133.20,0.00,1921.00,1456.00
1638,1042.32,3144.21,283.43,1913.00,1389.00
1647,1043.51,3155.17,4.90,1945.00,1418.00
1656,1044.70,3166.08,796.48,2118.00,1495.00
1665,1045.88,3176.93,46.53,2082.00,1480.00
1674,1047.07,3187.73,265.32,2012.00,1372.00
1683,1048.24,3198.48,1133.55,2211.00,1469.00
1692,1049.42,3209.17,921.25,2215.00,1482.00
1701,1050.59,3219.81,2016.43,2200.00,1370.00
1710,1051.76,3230.40,2978.68,2359.00,1478.00
1719,1052.93,3240.94,3841.05,2264.00,1327.00
1728,1054.10,3251.42,4350.18,2416.00,1444.00
1737,1055.26,3261.86,4420.43,2454.00,1492.00
1746,1056.41,3272.24,5538.22,2515.00,1503.00
1755,1057.57,3282.57,4628.97,2481.00,1552.00
1764,1058.72,3292.85,4115.02,2327.00,1456.00
1773,1059.87,3303.07,3079.03,2230.00,1421.00
1782,1061.01,3313.25,3463.06,2232.00,1440.00
1791,1062.15,3323.38,1433.32,2069.00,1385.00
1800,1063.29,3333.45,1177.72,2042.00,1395.00
1809,1064.42,3343.48,904.27,2073.00,1450.00
1818,1065.55,3353.45,1113.43,2002.00,1401.00
1827,1066.68,3363.38,1044.46,2016.00,1425.00
1836,1067.81,3373.25,724.45,1871.00,1328.00
1845,1068.93,3383.08,549.48,1839.00,1332.00
1854,1070.05,3392.85,1355.29,2050.00,1526.00
1863,1071.16,3402.58,2002.72,1868.00,1363.00
1872,1072.27,3412.26,1052.75,1879.00,1423.00
1881,1073.38,3421.89,1461.78,1746.00,1300.00
1890,1074.49,3431.47,1615.63,1776.00,1355.00
1899,1075.59,3441.00,1605.06,1763.00,1372.00
1908,1076.69,3450.49,2501.38,1841.00,1450.00
1917,1077.78,3459.93,821.22,1678.00,1353.00
1926,1078.87,3469.32,2290.50,1771.00,1439.00
1935,1079.96,3478.66,663.47,1659.00,1391.00
1944,1081.05,3487.95,1822.68,1746.00,1465.00
1953,1082.13,3497.20,2354.78,1702.00,1442.00
1962,1083.21,3506.40,2313.37,1604.00,1351.00
1971,1084.28,3515.56,2373.98,1744.00,1509.00
1980,1085.36,3524.67,2401.97,1611.00,1404.00
1989,1086.42,3533.73,3335.32,1554.00,1338.00
1998,1087.49,3542.74,1679.75,1575.00,1397.00
2007,1088.55,3551.71,1894.68,1501.00,1336.00
2016,1089.61,3560.64,2251.00,1499.00,1345.00
2025,1090.67,3569.52,435.87,1511.00,1385.00
2034,1091.72,3578.35,296.55,1355.00,1239.00
2043,1092.77,3587.14,0.00,1357.00,1249.00
2047,1093.23,3591.03,80.97,1319.00,1207.00