Folder: ENLIGHTEN/plugins/Raman/MatchingLibrary

Note: plugins/README_FIRST.TXT
--------------------------------------------------------------------------------
!!!         READ THIS BEFORE EDITING OR ADDING FILES IN THIS DIRECTORY       !!!
--------------------------------------------------------------------------------

This directory is copied to EnlightenSpectra/plugins in the user's "Documents" 
directory during installation.

This directory is also UNINSTALLED when you uninstall ENLIGHTEN -- with a few
important caveats:

1. If you have ADDED new files in this directory (which the ENLIGHTEN installer
   knows nothing about), those files will be LEFT UNCHANGED when you uninstall
   ENLIGHTEN.

2. If you then re-install ENLIGHTEN, it will re-create this directory and copy
   its own "default" plug-ins to this folder.  HOWEVER, it will NOT delete or
   change files which YOU had added in previous ENLIGHTEN versions (as long as
   default ENLIGHTEN plugins don't have the same name as yours).

3. If you EDIT or CHANGE an EXISTING plugin, without renaming it, YOUR WORK MAY 
   BE DELETED when you uninstall ENLIGHTEN.

4. If you EDIT or CHANGE an EXISTING plugin, without renaming it, YOUR WORK MAY 
   BE OVERWRITTEN when you re-install ENLIGHTEN.

We recommend you put all your custom plugins into the "User" folder,
(EnlightenSpectra/plugins/User), or that you create a new folder with your
company name (i.e. EnlightenSpectra/plugins/ACME). This way, your new or 
modified plugins will never be overwritten by future ENLIGHTEN updates.

Obviously, we also recommend that you put your own plugins under revision-control
(GitHub / GitLab are free!) to avoid any "unfortunate mishaps."

Please see "README_PLUGINS.md" for additional information.

File: calcium carbonate.csv
wavenumber,intensity
405.4,26.5200
414.3,17.6600
423.1,14.9000
431.9,35.1500
440.7,42.6800
449.5,59.6800
458.3,54.7200
467.1,51.1700
475.8,63.8800
484.6,67.3300
493.3,86.8400
502.0,48.1300
510.8,18.3900
519.5,24.2100
528.2,17.2500
536.9,7.2400
545.5,6.7300
554.2,30.2400
562.9,9.0100
571.5,8.7600
580.1,14.6800
588.8,8.8400
597.4,28.4500
606.0,29.4000
614.5,23.9800
623.1,18.6400
631.7,0.6500
640.2,9.5600
648.8,9.2700
657.3,15.5500
665.8,11.3300
674.3,0.0000
682.8,12.8800
691.3,11.2900
699.7,24.9900
708.2,254.6300
716.6,1844.44
725.0,91.8800
733.5,19.3000
741.9,3.8000
750.2,3.9800
758.6,9.3700
767.0,13.3900
775.3,21.9600
783.7,33.2100
792.0,23.0200
800.3,37.5800
808.6,35.1300
816.9,18.5200
825.2,34.1900
833.4,26.4000
841.7,11.0600
849.9,15.8800
858.1,12.5900
866.3,12.5400
874.5,14.0800
882.7,9.0400
890.8,9.9700
899.0,11.1100
907.1,12.4400
915.2,12.7200
923.4,13.0200
931.4,16.0300
939.5,13.6800
947.6,8.6700
955.6,12.8100
963.7,14.5700
971.7,19.2300
979.7,13.7200
987.7,0.9400
995.7,0.0000
1003.6,17.7600
1011.6,10.5300
1019.5,25.8400
1027.5,6.3400
1035.4,3.3900
1043.2,11.9900
1051.1,12.7800
1059.0,0.0000
1066.8,65.5800
1074.7,37.8400
1082.5,1295.02
1090.3,14200.5
1098.1,295.8200
1105.9,4.3600
1113.6,2.9500
1121.4,0.0000
1129.1,12.1500
1136.8,23.1400
1144.5,39.8400
1152.2,45.1900
1159.9,52.3000
1167.5,70.8000
1175.2,103.1900
1182.8,121.0000
1190.4,159.2100
1198.0,171.2900
1205.6,210.4400
1213.1,225.5900
1220.7,245.8600
1228.2,273.4900
1235.7,283.5900
1243.2,329.9500
1250.7,370.4900
1258.2,407.9800
1265.7,414.9700
1273.1,441.1800
1280.5,446.2600
1287.9,462.1900
1295.3,447.1900
1302.7,473.6500
1310.1,460.5300
1317.4,398.3400
1324.7,323.2800
1332.1,271.4000
1339.4,196.8100
1346.7,144.3800
1353.9,92.8600
1361.2,55.0500
1368.4,6.8900
1375.6,6.5700
1382.8,29.4200
1390.0,14.5600
1397.2,10.5600
1404.4,24.5800
1411.5,29.8400
1418.6,10.9100
1425.7,48.7800
1432.8,116.0500
1439.9,407.5800
1447.0,21.7900
1454.0,36.0500
1461.1,28.4200
1468.1,35.2200
1475.1,21.6200
1482.1,5.1100
1489.0,43.6800
1496.0,25.9200
1502.9,32.0700
1509.8,33.8400
1516.7,40.7600
1523.6,24.6200
1530.5,53.5500
1537.4,67.2100
1544.2,72.0900
1551.0,35.9400
1557.8,30.3900
1564.6,22.7800
1571.4,31.0800
1578.2,2.5800
1584.9,33.3300
1591.6,42.0200
1598.3,45.8800
1605.0,57.0200
1611.7,32.3300
1618.4,37.1400
1625.0,25.1600
1631.7,33.3500
1638.3,78.3300
1644.9,52.6400
1651.5,48.0400
1658.0,65.6300
1664.6,63.7800
1671.1,47.2400
1677.6,59.7700
1684.1,23.5700
1690.6,32.7600
1697.1,30.7200
1703.5,14.9500
1710.0,12.5200
1716.4,6.7900
1722.8,47.6200
1729.2,2.5700
1735.6,21.1500
1741.9,46.4400
1748.3,278.6600
1754.6,241.5000
1760.9,49.5600
1767.2,32.7400
1773.5,15.6300
1779.8,52.9800
1786.0,34.5100
1792.2,48.9700
1798.4,60.1500
1804.6,49.3700
1810.8,22.0800
1817.0,2.9700
1823.1,42.6900
1829.3,32.2500
1835.4,25.8800
1841.5,23.6700
1847.6,42.7100
1853.6,43.8700
1859.7,36.7000
1865.7,38.3900
1871.7,12.2400
1877.7,21.7900
1883.7,6.8300
1889.7,27.3100
1895.7,13.5500
1901.6,14.9600
1907.5,21.8100
1913.4,4.4300
1919.3,13.3200
1925.2,23.0200
1931.1,8.9200
1936.9,11.6900
1942.7,31.8200
1948.5,4.7600
1954.3,20.8800
1960.1,0.0000
1965.9,16.9600
1971.6,14.5300
1977.4,20.6600
1983.1,0.0000
1988.8,28.9800
1994.5,9.9800
2000.2,42.1200
2005.8,34.1100
2011.5,29.5200
2017.1,16.0600
2022.7,15.0900
2028.3,17.5300
2033.8,38.5500
2039.4,28.5700
2045.0,17.9900
2050.5,13.1300
2056.0,45.1200
2061.5,26.8900
2067.0,32.4400
2072.4,17.5800
2077.9,25.7800
2083.3,13.3900
2088.7,25.4200
2094.1,39.2100
2099.5,32.9100
2104.9,38.1900
2110.3,6.7900
2115.6,0.9300
2120.9,5.0200
2126.2,36.5000
2131.5,12.2100
2136.8,18.9900
2142.1,20.1000
2147.3,34.4100
2152.6,23.8200
2157.8,63.8100
2163.0,36.2100
2168.2,28.3300
2173.3,21.3500
2178.5,62.6800
2183.6,19.4700
2188.8,26.4400
2193.9,1.1800
2199.0,27.9700
2204.1,45.3500
2209.1,24.6200
2214.2,25.3500
2219.2,22.1800
2224.2,25.2200
2229.2,12.5700
2234.2,33.2500
2239.2,13.5400
2244.1,29.5200
2249.1,53.1600
2254.0,0.0000
2258.9,10.6100
2263.8,12.4400
2268.7,41.0800
2273.6,31.5600
2278.4,29.6700
2283.3,7.8700
2288.1,51.8900
2292.9,42.0500
2297.7,36.5500
2302.5,34.7600
2307.2,28.0300
2312.0,0.0000
2316.7,27.0200
2321.4,41.8000
2326.2,14.8700
2330.8,61.2800
2335.5,27.1400
2340.2,35.8300
2344.8,25.3500
2349.5,16.1500
2352.1,23.2700

File: hydrogen peroxide.csv
wavenumber,intensity
405.4,450.1000
414.3,556.9500
423.1,821.6200
431.9,1044.35
440.7,1172.06
449.5,1207.98
458.3,1375.05
467.1,1319.97
475.8,1236.22
484.6,1572.58
493.3,1624.94
502.0,1149.69
510.8,568.1400
519.5,79.4600
528.2,0.0000
536.9,23.1300
545.5,18.5600
554.2,0.0000
562.9,7.2900
571.5,78.6600
580.1,40.8000
588.8,231.2500
597.4,254.9400
606.0,369.5200
614.5,308.6200
623.1,100.1400
631.7,56.0000
640.2,0.0000
648.8,27.5700
657.3,71.8700
665.8,49.2400
674.3,26.3500
682.8,53.7200
691.3,82.1000
699.7,16.3600
708.2,60.8500
716.6,56.0900
725.0,77.3800
733.5,68.1500
741.9,0.0000
750.2,43.2900
758.6,0.0000
767.0,0.0000
775.3,153.1900
783.7,276.3300
792.0,264.7000
800.3,170.1300
808.6,194.6000
816.9,20.4000
825.2,8.2000
833.4,2.6500
841.7,0.0000
849.9,0.0000
858.1,407.3700
866.3,3451.5
874.5,15293.1
882.7,13787.3
890.8,3297.64
899.0,335.7100
907.1,0.0000
915.2,0.0000
923.4,21.4500
931.4,9.1500
939.5,0.0000
947.6,33.2800
955.6,0.9700
963.7,0.0000
971.7,0.0000
979.7,0.0000
987.7,0.0000
995.7,18.9000
1003.6,42.7000
1011.6,24.0600
1019.5,20.8900
1027.5,63.1300
1035.4,71.9600
1043.2,106.7100
1051.1,150.8900
1059.0,90.1800
1066.8,107.0400
1074.7,26.3600
1082.5,89.5500
1090.3,69.1200
1098.1,7.6600
1105.9,15.4300
1113.6,25.8900
1121.4,0.0000
1129.1,6.7400
1136.8,33.8300
1144.5,0.0000
1152.2,12.5300
1159.9,34.7100
1167.5,26.4900
1175.2,61.3300
1182.8,123.3200
1190.4,73.3800
1198.0,49.6700
1205.6,75.6300
1213.1,30.9100
1220.7,74.0500
1228.2,38.8200
1235.7,98.4400
1243.2,18.5400
1250.7,72.7600
1258.2,37.6900
1265.7,83.8600
1273.1,0.0000
1280.5,0.0000
1287.9,80.0200
1295.3,41.1900
1302.7,57.5400
1310.1,81.8300
1317.4,39.9900
1324.7,64.5400
1332.1,63.0500
1339.4,55.7200
1346.7,47.2200
1353.9,45.8600
1361.2,62.2100
1368.4,49.0800
1375.6,0.0000
1382.8,32.6000
1390.0,0.8500
1397.2,7.0700
1404.4,2.5200
1411.5,7.4500
1418.6,0.0000
1425.7,43.9400
1432.8,61.0400
1439.9,133.7600
1447.0,123.1000
1454.0,111.9600
1461.1,118.1800
1468.1,182.8300
1475.1,130.2300
1482.1,92.9600
1489.0,10.4100
1496.0,70.5000
1502.9,6.1100
1509.8,7.8500
1516.7,52.9300
1523.6,0.0000
1530.5,0.0000
1537.4,0.0500
1544.2,0.0000
1551.0,19.8600
1557.8,67.5100
1564.6,27.8200
1571.4,0.0000
1578.2,0.0000
1584.9,42.5400
1591.6,176.9300
1598.3,487.7600
1605.0,726.4500
1611.7,998.7100
1618.4,1432.92
1625.0,1649.95
1631.7,1831.37
1638.3,1857.06
1644.9,1911.22
1651.5,1962.16
1658.0,1707.27
1664.6,1565.52
1671.1,1318.71
1677.6,1039.69
1684.1,810.5900
1690.6,581.7800
1697.1,289.5900
1703.5,133.5400
1710.0,98.7700
1716.4,36.4500
1722.8,53.7500
1729.2,0.0000
1735.6,0.0000
1741.9,8.5800
1748.3,40.5100
1754.6,27.9000
1760.9,23.2900
1767.2,15.0800
1773.5,11.2800
1779.8,30.3200
1786.0,41.3400
1792.2,0.0000
1798.4,38.3300
1804.6,11.5300
1810.8,34.6200
1817.0,6.9200
1823.1,53.0700
1829.3,33.1800
1835.4,44.6600
1841.5,23.4600
1847.6,10.2800
1853.6,30.1000
1859.7,23.2400
1865.7,35.2300
1871.7,47.5500
1877.7,26.9400
1883.7,32.1600
1889.7,4.0500
1895.7,31.0700
1901.6,21.0000
1907.5,56.6400
1913.4,37.1700
1919.3,0.0000
1925.2,40.2400
1931.1,26.8400
1936.9,45.4000
1942.7,48.4600
1948.5,62.1300
1954.3,91.3300
1960.1,41.1100
1965.9,25.2800
1971.6,60.8300
1977.4,1.2600
1983.1,52.0200
1988.8,43.2300
1994.5,39.9800
2000.2,52.5300
2005.8,24.0700
2011.5,32.7200
2017.1,35.7400
2022.7,53.2100
2028.3,58.4600
2033.8,8.4200
2039.4,79.2800
2045.0,63.8800
2050.5,104.4500
2056.0,33.8600
2061.5,84.2100
2067.0,65.6100
2072.4,83.7300
2077.9,97.1300
2083.3,60.3100
2088.7,54.2000
2094.1,132.3700
2099.5,140.8000
2104.9,77.6600
2110.3,51.1600
2115.6,110.6500
2120.9,104.3500
2126.2,73.7600
2131.5,142.9600
2136.8,80.5400
2142.1,61.3500
2147.3,149.1900
2152.6,146.0500
2157.8,89.7900
2163.0,190.6900
2168.2,55.9000
2173.3,65.6200
2178.5,159.3300
2183.6,150.6500
2188.8,91.6800
2193.9,118.0400
2199.0,55.5500
2204.1,83.7200
2209.1,41.6500
2214.2,97.6700
2219.2,125.7000
2224.2,93.0300
2229.2,159.0600
2234.2,72.8500
2239.2,146.5600
2244.1,23.2700
2249.1,5.6200
2254.0,18.4800
2258.9,69.7100
2263.8,36.8900
2268.7,91.7000
2273.6,94.8100
2278.4,44.9700
2283.3,116.2900
2288.1,81.5400
2292.9,108.4400
2297.7,108.6600
2302.5,49.8300
2307.2,0.1200
2312.0,86.9500
2316.7,102.0000
2321.4,43.7400
2326.2,80.8000
2330.8,356.4200
2335.5,50.3400
2340.2,65.7800
2344.8,12.6000
2349.5,69.7700
2352.1,36.6000